"Block","Foreperiod","Location","NumRep","acc","accuracy","average_response_time","avg_rt","background","bidi","canvas_backend","clock_backend","color_backend","compensation","coordinates","correct","correct_GetResponse","correct_response","count_Block_1","count_Block_2","count_Block_3","count_Block_4","count_Block_5","count_ClearScreen","count_Feedback","count_Feedback_Final","count_Fixation","count_GetResponse","count_Instructions1","count_LogData","count_PreTrialWait","count_SingleTrial","count_Stimulus","count_experiment","datetime","description","font_bold","font_family","font_italic","font_size","foreground","form_response","height","keyboard_backend","logfile","mouse_backend","opensesame_codename","opensesame_version","repeat_cycle","response","response_Feedback","response_Feedback_Final","response_GetResponse","response_time","response_time_Feedback","response_time_Feedback_Final","response_time_GetResponse","sampler_backend","start","subject_nr","subject_parity","synth_backend","time_Block_1","time_Block_2","time_Block_3","time_Block_4","time_Block_5","time_ClearScreen","time_Feedback","time_Feedback_Final","time_Fixation","time_GetResponse","time_Instructions1","time_LogData","time_PreTrialWait","time_SingleTrial","time_Stimulus","time_experiment","title","total_correct","total_response_time","total_responses","uniform_coordinates","width"
"1","1600","150","15","100","100","257","257","white","no","xpyriment","legacy","legacy","0","uniform","1","1","m","0","0","0","0","0","0","NA","NA","0","0","0","0","0","0","0","0","11/26/15 15:50:03","Default description","no","mono","no","18","black","Ok","768","legacy","C:/Users/Elef/Downloads/subject-2303159.csv","xpyriment","Interactive Ising","3.0.2","0","m","NA","NA","m","257","NA","NA","257","legacy","experiment","2303159","odd","legacy","142792","NA","NA","NA","NA","146615","NA","NA","144755","146357","4592","146615","143252","143251","146357","4592","CogMod 2015 Experiment","1","257","1","yes","1024"
"1","1200","150","15","100","100","262","262","white","no","xpyriment","legacy","legacy","0","uniform","1","1","m","0","0","0","0","0","1","NA","NA","1","1","0","1","1","1","1","0","11/26/15 15:50:03","Default description","no","mono","no","18","black","Ok","768","legacy","C:/Users/Elef/Downloads/subject-2303159.csv","xpyriment","Interactive Ising","3.0.2","0","m","NA","NA","m","267","NA","NA","267","legacy","experiment","2303159","odd","legacy","142792","NA","NA","NA","NA","150060","NA","NA","148590","149792","4592","150061","147087","147086","149791","4592","CogMod 2015 Experiment","2","524","2","yes","1024"
"1","400","150","15","100","100","309","309","white","no","xpyriment","legacy","legacy","0","uniform","1","1","m","0","0","0","0","0","2","NA","NA","2","2","0","2","2","2","2","0","11/26/15 15:50:03","Default description","no","mono","no","18","black","Ok","768","legacy","C:/Users/Elef/Downloads/subject-2303159.csv","xpyriment","Interactive Ising","3.0.2","0","m","NA","NA","m","405","NA","NA","405","legacy","experiment","2303159","odd","legacy","142792","NA","NA","NA","NA","152839","NA","NA","152031","152433","4592","152839","150528","150527","152432","4592","CogMod 2015 Experiment","3","929","3","yes","1024"
"1","800","-150","15","100","100","292","292","white","no","xpyriment","legacy","legacy","0","uniform","1","1","z","0","0","0","0","0","3","NA","NA","3","3","0","3","3","3","3","0","11/26/15 15:50:03","Default description","no","mono","no","18","black","Ok","768","legacy","C:/Users/Elef/Downloads/subject-2303159.csv","xpyriment","Interactive Ising","3.0.2","0","z","NA","NA","z","241","NA","NA","241","legacy","experiment","2303159","odd","legacy","142792","NA","NA","NA","NA","155847","NA","NA","154802","155605","4592","155847","153301","153299","155604","4592","CogMod 2015 Experiment","4","1170","4","yes","1024"
"1","1200","-150","15","100","100","287","287","white","no","xpyriment","legacy","legacy","0","uniform","1","1","z","0","0","0","0","0","4","NA","NA","4","4","0","4","4","4","4","0","11/26/15 15:50:03","Default description","no","mono","no","18","black","Ok","768","legacy","C:/Users/Elef/Downloads/subject-2303159.csv","xpyriment","Interactive Ising","3.0.2","0","z","NA","NA","z","269","NA","NA","269","legacy","experiment","2303159","odd","legacy","142792","NA","NA","NA","NA","159340","NA","NA","157867","159069","4592","159340","156366","156364","159069","4592","CogMod 2015 Experiment","5","1439","5","yes","1024"
"1","400","-150","15","100","100","296","296","white","no","xpyriment","legacy","legacy","0","uniform","1","1","z","0","0","0","0","0","5","NA","NA","5","5","0","5","5","5","5","0","11/26/15 15:50:03","Default description","no","mono","no","18","black","Ok","768","legacy","C:/Users/Elef/Downloads/subject-2303159.csv","xpyriment","Interactive Ising","3.0.2","0","z","NA","NA","z","338","NA","NA","338","legacy","experiment","2303159","odd","legacy","142792","NA","NA","NA","NA","162039","NA","NA","161296","161699","4592","162039","159795","159793","161698","4592","CogMod 2015 Experiment","6","1777","6","yes","1024"
"1","1200","150","15","100","100","290","290","white","no","xpyriment","legacy","legacy","0","uniform","1","1","m","0","0","0","0","0","6","NA","NA","6","6","0","6","6","6","6","0","11/26/15 15:50:03","Default description","no","mono","no","18","black","Ok","768","legacy","C:/Users/Elef/Downloads/subject-2303159.csv","xpyriment","Interactive Ising","3.0.2","0","m","NA","NA","m","253","NA","NA","253","legacy","experiment","2303159","odd","legacy","142792","NA","NA","NA","NA","165483","NA","NA","164026","165229","4592","165483","162525","162524","165228","4592","CogMod 2015 Experiment","7","2030","7","yes","1024"
"1","1600","-150","15","100","100","285","285","white","no","xpyriment","legacy","legacy","0","uniform","1","1","z","0","0","0","0","0","7","NA","NA","7","7","0","7","7","7","7","0","11/26/15 15:50:03","Default description","no","mono","no","18","black","Ok","768","legacy","C:/Users/Elef/Downloads/subject-2303159.csv","xpyriment","Interactive Ising","3.0.2","0","z","NA","NA","z","252","NA","NA","252","legacy","experiment","2303159","odd","legacy","142792","NA","NA","NA","NA","169307","NA","NA","167451","169054","4592","169307","165950","165948","169053","4592","CogMod 2015 Experiment","8","2282","8","yes","1024"
"1","1200","-150","15","100","100","281","281","white","no","xpyriment","legacy","legacy","0","uniform","1","1","z","0","0","0","0","0","8","NA","NA","8","8","0","8","8","8","8","0","11/26/15 15:50:03","Default description","no","mono","no","18","black","Ok","768","legacy","C:/Users/Elef/Downloads/subject-2303159.csv","xpyriment","Interactive Ising","3.0.2","0","z","NA","NA","z","254","NA","NA","254","legacy","experiment","2303159","odd","legacy","142792","NA","NA","NA","NA","172748","NA","NA","171290","172493","4592","172748","169788","169787","172492","4592","CogMod 2015 Experiment","9","2536","9","yes","1024"
"1","400","150","15","100","100","282","282","white","no","xpyriment","legacy","legacy","0","uniform","1","1","m","0","0","0","0","0","9","NA","NA","9","9","0","9","9","9","9","0","11/26/15 15:50:03","Default description","no","mono","no","18","black","Ok","768","legacy","C:/Users/Elef/Downloads/subject-2303159.csv","xpyriment","Interactive Ising","3.0.2","0","m","NA","NA","m","289","NA","NA","289","legacy","experiment","2303159","odd","legacy","142792","NA","NA","NA","NA","175400","NA","NA","174707","175110","4592","175400","173206","173204","175109","4592","CogMod 2015 Experiment","10","2825","10","yes","1024"
"1","800","150","15","100","100","280","280","white","no","xpyriment","legacy","legacy","0","uniform","1","1","m","0","0","0","0","0","10","NA","NA","10","10","0","10","10","10","10","0","11/26/15 15:50:03","Default description","no","mono","no","18","black","Ok","768","legacy","C:/Users/Elef/Downloads/subject-2303159.csv","xpyriment","Interactive Ising","3.0.2","0","m","NA","NA","m","265","NA","NA","265","legacy","experiment","2303159","odd","legacy","142792","NA","NA","NA","NA","178435","NA","NA","177367","178169","4592","178435","175864","175863","178169","4592","CogMod 2015 Experiment","11","3090","11","yes","1024"
"1","400","150","15","100","100","280","280","white","no","xpyriment","legacy","legacy","0","uniform","1","1","m","0","0","0","0","0","11","NA","NA","11","11","0","11","11","11","11","0","11/26/15 15:50:03","Default description","no","mono","no","18","black","Ok","768","legacy","C:/Users/Elef/Downloads/subject-2303159.csv","xpyriment","Interactive Ising","3.0.2","0","m","NA","NA","m","271","NA","NA","271","legacy","experiment","2303159","odd","legacy","142792","NA","NA","NA","NA","181075","NA","NA","180400","180802","4592","181075","178898","178896","180801","4592","CogMod 2015 Experiment","12","3361","12","yes","1024"
"1","1600","-150","15","100","100","277","277","white","no","xpyriment","legacy","legacy","0","uniform","1","1","z","0","0","0","0","0","12","NA","NA","12","12","0","12","12","12","12","0","11/26/15 15:50:03","Default description","no","mono","no","18","black","Ok","768","legacy","C:/Users/Elef/Downloads/subject-2303159.csv","xpyriment","Interactive Ising","3.0.2","0","z","NA","NA","z","249","NA","NA","249","legacy","experiment","2303159","odd","legacy","142792","NA","NA","NA","NA","184904","NA","NA","183051","184653","4592","184904","181549","181547","184652","4592","CogMod 2015 Experiment","13","3610","13","yes","1024"
"1","1200","150","15","100","100","272","272","white","no","xpyriment","legacy","legacy","0","uniform","1","1","m","0","0","0","0","0","13","NA","NA","13","13","0","13","13","13","13","0","11/26/15 15:50:03","Default description","no","mono","no","18","black","Ok","768","legacy","C:/Users/Elef/Downloads/subject-2303159.csv","xpyriment","Interactive Ising","3.0.2","0","m","NA","NA","m","205","NA","NA","205","legacy","experiment","2303159","odd","legacy","142792","NA","NA","NA","NA","188282","NA","NA","186874","188076","4592","188282","185372","185370","188075","4592","CogMod 2015 Experiment","14","3815","14","yes","1024"
"1","1200","-150","15","100","100","274","274","white","no","xpyriment","legacy","legacy","0","uniform","1","1","z","0","0","0","0","0","14","NA","NA","14","14","0","14","14","14","14","0","11/26/15 15:50:03","Default description","no","mono","no","18","black","Ok","768","legacy","C:/Users/Elef/Downloads/subject-2303159.csv","xpyriment","Interactive Ising","3.0.2","0","z","NA","NA","z","308","NA","NA","308","legacy","experiment","2303159","odd","legacy","142792","NA","NA","NA","NA","191771","NA","NA","190258","191461","4592","191771","188757","188755","191461","4592","CogMod 2015 Experiment","15","4123","15","yes","1024"
"1","1600","-150","15","100","100","272","272","white","no","xpyriment","legacy","legacy","0","uniform","1","1","z","0","0","0","0","0","15","NA","NA","15","15","0","15","15","15","15","0","11/26/15 15:50:03","Default description","no","mono","no","18","black","Ok","768","legacy","C:/Users/Elef/Downloads/subject-2303159.csv","xpyriment","Interactive Ising","3.0.2","0","z","NA","NA","z","232","NA","NA","232","legacy","experiment","2303159","odd","legacy","142792","NA","NA","NA","NA","195577","NA","NA","193741","195343","4592","195577","192238","192235","195342","4592","CogMod 2015 Experiment","16","4355","16","yes","1024"
"1","1600","-150","15","100","100","271","271","white","no","xpyriment","legacy","legacy","0","uniform","1","1","z","0","0","0","0","0","16","NA","NA","16","16","0","16","16","16","16","0","11/26/15 15:50:03","Default description","no","mono","no","18","black","Ok","768","legacy","C:/Users/Elef/Downloads/subject-2303159.csv","xpyriment","Interactive Ising","3.0.2","0","z","NA","NA","z","252","NA","NA","252","legacy","experiment","2303159","odd","legacy","142792","NA","NA","NA","NA","199395","NA","NA","197540","199142","4592","199395","196037","196036","199142","4592","CogMod 2015 Experiment","17","4607","17","yes","1024"
"1","1600","150","15","100","100","269","269","white","no","xpyriment","legacy","legacy","0","uniform","1","1","m","0","0","0","0","0","17","NA","NA","17","17","0","17","17","17","17","0","11/26/15 15:50:03","Default description","no","mono","no","18","black","Ok","768","legacy","C:/Users/Elef/Downloads/subject-2303159.csv","xpyriment","Interactive Ising","3.0.2","0","m","NA","NA","m","236","NA","NA","236","legacy","experiment","2303159","odd","legacy","142792","NA","NA","NA","NA","203247","NA","NA","201407","203010","4592","203247","199906","199904","203009","4592","CogMod 2015 Experiment","18","4843","18","yes","1024"
"1","1200","150","15","100","100","272","272","white","no","xpyriment","legacy","legacy","0","uniform","1","1","m","0","0","0","0","0","18","NA","NA","18","18","0","18","18","18","18","0","11/26/15 15:50:03","Default description","no","mono","no","18","black","Ok","768","legacy","C:/Users/Elef/Downloads/subject-2303159.csv","xpyriment","Interactive Ising","3.0.2","0","m","NA","NA","m","337","NA","NA","337","legacy","experiment","2303159","odd","legacy","142792","NA","NA","NA","NA","206757","NA","NA","205215","206418","4592","206757","203714","203712","206417","4592","CogMod 2015 Experiment","19","5180","19","yes","1024"
"1","1600","150","15","100","100","274","274","white","no","xpyriment","legacy","legacy","0","uniform","1","1","m","0","0","0","0","0","19","NA","NA","19","19","0","19","19","19","19","0","11/26/15 15:50:03","Default description","no","mono","no","18","black","Ok","768","legacy","C:/Users/Elef/Downloads/subject-2303159.csv","xpyriment","Interactive Ising","3.0.2","0","m","NA","NA","m","313","NA","NA","313","legacy","experiment","2303159","odd","legacy","142792","NA","NA","NA","NA","210640","NA","NA","208723","210325","4592","210640","207221","207219","210325","4592","CogMod 2015 Experiment","20","5493","20","yes","1024"
"1","400","150","15","100","100","277","277","white","no","xpyriment","legacy","legacy","0","uniform","1","1","m","0","0","0","0","0","20","NA","NA","20","20","0","20","20","20","20","0","11/26/15 15:50:03","Default description","no","mono","no","18","black","Ok","768","legacy","C:/Users/Elef/Downloads/subject-2303159.csv","xpyriment","Interactive Ising","3.0.2","0","m","NA","NA","m","339","NA","NA","339","legacy","experiment","2303159","odd","legacy","142792","NA","NA","NA","NA","213348","NA","NA","212605","213007","4592","213348","211103","211101","213006","4592","CogMod 2015 Experiment","21","5832","21","yes","1024"
"1","400","150","15","100","100","277","277","white","no","xpyriment","legacy","legacy","0","uniform","1","1","m","0","0","0","0","0","21","NA","NA","21","21","0","21","21","21","21","0","11/26/15 15:50:03","Default description","no","mono","no","18","black","Ok","768","legacy","C:/Users/Elef/Downloads/subject-2303159.csv","xpyriment","Interactive Ising","3.0.2","0","m","NA","NA","m","268","NA","NA","268","legacy","experiment","2303159","odd","legacy","142792","NA","NA","NA","NA","215998","NA","NA","215325","215728","4592","215998","213823","213822","215727","4592","CogMod 2015 Experiment","22","6100","22","yes","1024"
"1","800","-150","15","100","100","276","276","white","no","xpyriment","legacy","legacy","0","uniform","1","1","z","0","0","0","0","0","22","NA","NA","22","22","0","22","22","22","22","0","11/26/15 15:50:03","Default description","no","mono","no","18","black","Ok","768","legacy","C:/Users/Elef/Downloads/subject-2303159.csv","xpyriment","Interactive Ising","3.0.2","0","z","NA","NA","z","269","NA","NA","269","legacy","experiment","2303159","odd","legacy","142792","NA","NA","NA","NA","219035","NA","NA","217961","218764","4592","219035","216459","216458","218763","4592","CogMod 2015 Experiment","23","6369","23","yes","1024"
"1","800","150","15","100","100","275","275","white","no","xpyriment","legacy","legacy","0","uniform","1","1","m","0","0","0","0","0","23","NA","NA","23","23","0","23","23","23","23","0","11/26/15 15:50:03","Default description","no","mono","no","18","black","Ok","768","legacy","C:/Users/Elef/Downloads/subject-2303159.csv","xpyriment","Interactive Ising","3.0.2","0","m","NA","NA","m","241","NA","NA","241","legacy","experiment","2303159","odd","legacy","142792","NA","NA","NA","NA","222042","NA","NA","220997","221800","4592","222042","219496","219495","221800","4592","CogMod 2015 Experiment","24","6610","24","yes","1024"
"1","800","-150","15","100","100","273","273","white","no","xpyriment","legacy","legacy","0","uniform","1","1","z","0","0","0","0","0","24","NA","NA","24","24","0","24","24","24","24","0","11/26/15 15:50:03","Default description","no","mono","no","18","black","Ok","768","legacy","C:/Users/Elef/Downloads/subject-2303159.csv","xpyriment","Interactive Ising","3.0.2","0","z","NA","NA","z","237","NA","NA","237","legacy","experiment","2303159","odd","legacy","142792","NA","NA","NA","NA","225045","NA","NA","224005","224807","4592","225045","222504","222502","224807","4592","CogMod 2015 Experiment","25","6847","25","yes","1024"
"1","1600","150","15","100","100","272","272","white","no","xpyriment","legacy","legacy","0","uniform","1","1","m","0","0","0","0","0","25","NA","NA","25","25","0","25","25","25","25","0","11/26/15 15:50:03","Default description","no","mono","no","18","black","Ok","768","legacy","C:/Users/Elef/Downloads/subject-2303159.csv","xpyriment","Interactive Ising","3.0.2","0","m","NA","NA","m","247","NA","NA","247","legacy","experiment","2303159","odd","legacy","142792","NA","NA","NA","NA","228865","NA","NA","227015","228617","4592","228865","225513","225512","228616","4592","CogMod 2015 Experiment","26","7094","26","yes","1024"
"1","1200","150","15","100","100","272","272","white","no","xpyriment","legacy","legacy","0","uniform","1","1","m","0","0","0","0","0","26","NA","NA","26","26","0","26","26","26","26","0","11/26/15 15:50:03","Default description","no","mono","no","18","black","Ok","768","legacy","C:/Users/Elef/Downloads/subject-2303159.csv","xpyriment","Interactive Ising","3.0.2","0","m","NA","NA","m","261","NA","NA","261","legacy","experiment","2303159","odd","legacy","142792","NA","NA","NA","NA","232302","NA","NA","230837","232040","4592","232303","229336","229335","232040","4592","CogMod 2015 Experiment","27","7355","27","yes","1024"
"1","1200","150","15","100","100","272","272","white","no","xpyriment","legacy","legacy","0","uniform","1","1","m","0","0","0","0","0","27","NA","NA","27","27","0","27","27","27","27","0","11/26/15 15:50:03","Default description","no","mono","no","18","black","Ok","768","legacy","C:/Users/Elef/Downloads/subject-2303159.csv","xpyriment","Interactive Ising","3.0.2","0","m","NA","NA","m","272","NA","NA","272","legacy","experiment","2303159","odd","legacy","142792","NA","NA","NA","NA","235748","NA","NA","234272","235474","4592","235748","232770","232768","235474","4592","CogMod 2015 Experiment","28","7627","28","yes","1024"
"1","1600","150","15","100","100","270","270","white","no","xpyriment","legacy","legacy","0","uniform","1","1","m","0","0","0","0","0","28","NA","NA","28","28","0","28","28","28","28","0","11/26/15 15:50:03","Default description","no","mono","no","18","black","Ok","768","legacy","C:/Users/Elef/Downloads/subject-2303159.csv","xpyriment","Interactive Ising","3.0.2","0","m","NA","NA","m","217","NA","NA","217","legacy","experiment","2303159","odd","legacy","142792","NA","NA","NA","NA","239628","NA","NA","237806","239409","4592","239628","236305","236302","239408","4592","CogMod 2015 Experiment","29","7844","29","yes","1024"
"1","400","150","15","100","100","287","287","white","no","xpyriment","legacy","legacy","0","uniform","1","1","m","0","0","0","0","0","29","NA","NA","29","29","0","29","29","29","29","0","11/26/15 15:50:03","Default description","no","mono","no","18","black","Ok","768","legacy","C:/Users/Elef/Downloads/subject-2303159.csv","xpyriment","Interactive Ising","3.0.2","0","m","NA","NA","m","790","NA","NA","790","legacy","experiment","2303159","odd","legacy","142792","NA","NA","NA","NA","242777","NA","NA","241583","241986","4592","242777","240081","240080","241985","4592","CogMod 2015 Experiment","30","8634","30","yes","1024"
"1","400","-150","15","100","100","288","288","white","no","xpyriment","legacy","legacy","0","uniform","1","1","z","0","0","0","0","0","30","NA","NA","30","30","0","30","30","30","30","0","11/26/15 15:50:03","Default description","no","mono","no","18","black","Ok","768","legacy","C:/Users/Elef/Downloads/subject-2303159.csv","xpyriment","Interactive Ising","3.0.2","0","z","NA","NA","z","316","NA","NA","316","legacy","experiment","2303159","odd","legacy","142792","NA","NA","NA","NA","245472","NA","NA","244751","245154","4592","245472","243250","243246","245153","4592","CogMod 2015 Experiment","31","8950","31","yes","1024"
"1","800","-150","15","100","100","289","289","white","no","xpyriment","legacy","legacy","0","uniform","1","1","z","0","0","0","0","0","31","NA","NA","31","31","0","31","31","31","31","0","11/26/15 15:50:03","Default description","no","mono","no","18","black","Ok","768","legacy","C:/Users/Elef/Downloads/subject-2303159.csv","xpyriment","Interactive Ising","3.0.2","0","z","NA","NA","z","308","NA","NA","308","legacy","experiment","2303159","odd","legacy","142792","NA","NA","NA","NA","248553","NA","NA","247441","248244","4592","248553","245940","245938","248243","4592","CogMod 2015 Experiment","32","9258","32","yes","1024"
"1","800","150","15","100","100","287","287","white","no","xpyriment","legacy","legacy","0","uniform","1","1","m","0","0","0","0","0","32","NA","NA","32","32","0","32","32","32","32","0","11/26/15 15:50:03","Default description","no","mono","no","18","black","Ok","768","legacy","C:/Users/Elef/Downloads/subject-2303159.csv","xpyriment","Interactive Ising","3.0.2","0","m","NA","NA","m","222","NA","NA","222","legacy","experiment","2303159","odd","legacy","142792","NA","NA","NA","NA","251591","NA","NA","250565","251368","4592","251591","249064","249058","251368","4592","CogMod 2015 Experiment","33","9480","33","yes","1024"
"1","800","-150","15","100","100","286","286","white","no","xpyriment","legacy","legacy","0","uniform","1","1","z","0","0","0","0","0","33","NA","NA","33","33","0","33","33","33","33","0","11/26/15 15:50:03","Default description","no","mono","no","18","black","Ok","768","legacy","C:/Users/Elef/Downloads/subject-2303159.csv","xpyriment","Interactive Ising","3.0.2","0","z","NA","NA","z","246","NA","NA","246","legacy","experiment","2303159","odd","legacy","142792","NA","NA","NA","NA","254618","NA","NA","253569","254371","4592","254618","252066","252065","254370","4592","CogMod 2015 Experiment","34","9726","34","yes","1024"
"1","800","150","15","100","100","284","284","white","no","xpyriment","legacy","legacy","0","uniform","1","1","m","0","0","0","0","0","34","NA","NA","34","34","0","34","34","34","34","0","11/26/15 15:50:03","Default description","no","mono","no","18","black","Ok","768","legacy","C:/Users/Elef/Downloads/subject-2303159.csv","xpyriment","Interactive Ising","3.0.2","0","m","NA","NA","m","229","NA","NA","229","legacy","experiment","2303159","odd","legacy","142792","NA","NA","NA","NA","257621","NA","NA","256589","257391","4592","257621","255087","255083","257390","4592","CogMod 2015 Experiment","35","9955","35","yes","1024"
"1","1600","150","15","100","100","282","282","white","no","xpyriment","legacy","legacy","0","uniform","1","1","m","0","0","0","0","0","35","NA","NA","35","35","0","35","35","35","35","0","11/26/15 15:50:03","Default description","no","mono","no","18","black","Ok","768","legacy","C:/Users/Elef/Downloads/subject-2303159.csv","xpyriment","Interactive Ising","3.0.2","0","m","NA","NA","m","232","NA","NA","232","legacy","experiment","2303159","odd","legacy","142792","NA","NA","NA","NA","261424","NA","NA","259589","261191","4592","261424","258087","258086","261191","4592","CogMod 2015 Experiment","36","10187","36","yes","1024"
"1","400","150","15","100","100","283","283","white","no","xpyriment","legacy","legacy","0","uniform","1","1","m","0","0","0","0","0","36","NA","NA","36","36","0","36","36","36","36","0","11/26/15 15:50:03","Default description","no","mono","no","18","black","Ok","768","legacy","C:/Users/Elef/Downloads/subject-2303159.csv","xpyriment","Interactive Ising","3.0.2","0","m","NA","NA","m","291","NA","NA","291","legacy","experiment","2303159","odd","legacy","142792","NA","NA","NA","NA","264083","NA","NA","263388","263790","4592","264083","261886","261882","263789","4592","CogMod 2015 Experiment","37","10478","37","yes","1024"
"1","800","-150","15","100","100","282","282","white","no","xpyriment","legacy","legacy","0","uniform","1","1","z","0","0","0","0","0","37","NA","NA","37","37","0","37","37","37","37","0","11/26/15 15:50:03","Default description","no","mono","no","18","black","Ok","768","legacy","C:/Users/Elef/Downloads/subject-2303159.csv","xpyriment","Interactive Ising","3.0.2","0","z","NA","NA","z","246","NA","NA","246","legacy","experiment","2303159","odd","legacy","142792","NA","NA","NA","NA","267094","NA","NA","266044","266847","4592","267094","264543","264541","266846","4592","CogMod 2015 Experiment","38","10724","38","yes","1024"
"1","1200","-150","15","100","100","282","282","white","no","xpyriment","legacy","legacy","0","uniform","1","1","z","0","0","0","0","0","38","NA","NA","38","38","0","38","38","38","38","0","11/26/15 15:50:03","Default description","no","mono","no","18","black","Ok","768","legacy","C:/Users/Elef/Downloads/subject-2303159.csv","xpyriment","Interactive Ising","3.0.2","0","z","NA","NA","z","306","NA","NA","306","legacy","experiment","2303159","odd","legacy","142792","NA","NA","NA","NA","270584","NA","NA","269074","270277","4592","270585","267573","267569","270276","4592","CogMod 2015 Experiment","39","11030","39","yes","1024"
"1","800","-150","15","97.5","97.5","282","282","white","no","xpyriment","legacy","legacy","0","uniform","0","0","z","0","0","0","0","0","39","NA","NA","39","39","0","39","39","39","39","0","11/26/15 15:50:03","Default description","no","mono","no","18","black","Ok","768","legacy","C:/Users/Elef/Downloads/subject-2303159.csv","xpyriment","Interactive Ising","3.0.2","0","m","NA","NA","m","282","NA","NA","282","legacy","experiment","2303159","odd","legacy","142792","NA","NA","NA","NA","273645","NA","NA","272558","273361","4592","273645","271057","271055","273360","4592","CogMod 2015 Experiment","39","11312","40","yes","1024"
"1","1200","-150","15","97.5609756098","97.5609756098","283","283","white","no","xpyriment","legacy","legacy","0","uniform","1","1","z","0","0","0","0","0","40","NA","NA","40","40","0","40","40","40","40","0","11/26/15 15:50:03","Default description","no","mono","no","18","black","Ok","768","legacy","C:/Users/Elef/Downloads/subject-2303159.csv","xpyriment","Interactive Ising","3.0.2","0","z","NA","NA","z","291","NA","NA","291","legacy","experiment","2303159","odd","legacy","142792","NA","NA","NA","NA","277103","NA","NA","275609","276811","4592","277103","274107","274105","276810","4592","CogMod 2015 Experiment","40","11603","41","yes","1024"
"1","800","-150","15","97.619047619","97.619047619","283","283","white","no","xpyriment","legacy","legacy","0","uniform","1","1","z","0","0","0","0","0","41","NA","NA","41","41","0","41","41","41","41","0","11/26/15 15:50:03","Default description","no","mono","no","18","black","Ok","768","legacy","C:/Users/Elef/Downloads/subject-2303159.csv","xpyriment","Interactive Ising","3.0.2","0","z","NA","NA","z","298","NA","NA","298","legacy","experiment","2303159","odd","legacy","142792","NA","NA","NA","NA","280191","NA","NA","279089","279892","4592","280191","277588","277586","279891","4592","CogMod 2015 Experiment","41","11901","42","yes","1024"
"1","1200","-150","15","97.6744186047","97.6744186047","282","282","white","no","xpyriment","legacy","legacy","0","uniform","1","1","z","0","0","0","0","0","42","NA","NA","42","42","0","42","42","42","42","0","11/26/15 15:50:03","Default description","no","mono","no","18","black","Ok","768","legacy","C:/Users/Elef/Downloads/subject-2303159.csv","xpyriment","Interactive Ising","3.0.2","0","z","NA","NA","z","242","NA","NA","242","legacy","experiment","2303159","odd","legacy","142792","NA","NA","NA","NA","283611","NA","NA","282166","283368","4592","283611","280663","280662","283368","4592","CogMod 2015 Experiment","42","12143","43","yes","1024"
"1","800","-150","15","97.7272727273","97.7272727273","281","281","white","no","xpyriment","legacy","legacy","0","uniform","1","1","z","0","0","0","0","0","43","NA","NA","43","43","0","43","43","43","43","0","11/26/15 15:50:03","Default description","no","mono","no","18","black","Ok","768","legacy","C:/Users/Elef/Downloads/subject-2303159.csv","xpyriment","Interactive Ising","3.0.2","0","z","NA","NA","z","235","NA","NA","235","legacy","experiment","2303159","odd","legacy","142792","NA","NA","NA","NA","286624","NA","NA","285585","286387","4592","286624","284083","284082","286387","4592","CogMod 2015 Experiment","43","12378","44","yes","1024"
"1","1600","-150","15","97.7777777778","97.7777777778","281","281","white","no","xpyriment","legacy","legacy","0","uniform","1","1","z","0","0","0","0","0","44","NA","NA","44","44","0","44","44","44","44","0","11/26/15 15:50:03","Default description","no","mono","no","18","black","Ok","768","legacy","C:/Users/Elef/Downloads/subject-2303159.csv","xpyriment","Interactive Ising","3.0.2","0","z","NA","NA","z","292","NA","NA","292","legacy","experiment","2303159","odd","legacy","142792","NA","NA","NA","NA","290509","NA","NA","288612","290215","4592","290509","287111","287109","290214","4592","CogMod 2015 Experiment","44","12670","45","yes","1024"
"1","400","150","15","97.8260869565","97.8260869565","282","282","white","no","xpyriment","legacy","legacy","0","uniform","1","1","m","0","0","0","0","0","45","NA","NA","45","45","0","45","45","45","45","0","11/26/15 15:50:03","Default description","no","mono","no","18","black","Ok","768","legacy","C:/Users/Elef/Downloads/subject-2303159.csv","xpyriment","Interactive Ising","3.0.2","0","m","NA","NA","m","320","NA","NA","320","legacy","experiment","2303159","odd","legacy","142792","NA","NA","NA","NA","293199","NA","NA","292476","292878","4592","293199","290975","290974","292878","4592","CogMod 2015 Experiment","45","12990","46","yes","1024"
"1","1600","-150","15","97.8723404255","97.8723404255","283","283","white","no","xpyriment","legacy","legacy","0","uniform","1","1","z","0","0","0","0","0","46","NA","NA","46","46","0","46","46","46","46","0","11/26/15 15:50:03","Default description","no","mono","no","18","black","Ok","768","legacy","C:/Users/Elef/Downloads/subject-2303159.csv","xpyriment","Interactive Ising","3.0.2","0","z","NA","NA","z","312","NA","NA","312","legacy","experiment","2303159","odd","legacy","142792","NA","NA","NA","NA","297111","NA","NA","295194","296797","4592","297111","293693","293691","296797","4592","CogMod 2015 Experiment","46","13302","47","yes","1024"
"1","400","150","15","97.9166666667","97.9166666667","283","283","white","no","xpyriment","legacy","legacy","0","uniform","1","1","m","0","0","0","0","0","47","NA","NA","47","47","0","47","47","47","47","0","11/26/15 15:50:03","Default description","no","mono","no","18","black","Ok","768","legacy","C:/Users/Elef/Downloads/subject-2303159.csv","xpyriment","Interactive Ising","3.0.2","0","m","NA","NA","m","312","NA","NA","312","legacy","experiment","2303159","odd","legacy","142792","NA","NA","NA","NA","299803","NA","NA","299087","299490","4592","299803","297586","297584","299489","4592","CogMod 2015 Experiment","47","13614","48","yes","1024"
"1","1200","150","15","97.9591836735","97.9591836735","284","284","white","no","xpyriment","legacy","legacy","0","uniform","1","1","m","0","0","0","0","0","48","NA","NA","48","48","0","48","48","48","48","0","11/26/15 15:50:03","Default description","no","mono","no","18","black","Ok","768","legacy","C:/Users/Elef/Downloads/subject-2303159.csv","xpyriment","Interactive Ising","3.0.2","0","m","NA","NA","m","333","NA","NA","333","legacy","experiment","2303159","odd","legacy","142792","NA","NA","NA","NA","303347","NA","NA","301811","303012","4592","303347","300308","300307","303011","4592","CogMod 2015 Experiment","48","13947","49","yes","1024"
"1","400","-150","15","98","98","284","284","white","no","xpyriment","legacy","legacy","0","uniform","1","1","z","0","0","0","0","0","49","NA","NA","49","49","0","49","49","49","49","0","11/26/15 15:50:03","Default description","no","mono","no","18","black","Ok","768","legacy","C:/Users/Elef/Downloads/subject-2303159.csv","xpyriment","Interactive Ising","3.0.2","0","z","NA","NA","z","260","NA","NA","260","legacy","experiment","2303159","odd","legacy","142792","NA","NA","NA","NA","305982","NA","NA","305318","305721","4592","305982","303817","303815","305720","4592","CogMod 2015 Experiment","49","14207","50","yes","1024"
"1","1600","150","15","98.0392156863","98.0392156863","284","284","white","no","xpyriment","legacy","legacy","0","uniform","1","1","m","0","0","0","0","0","50","NA","NA","50","50","0","50","50","50","50","0","11/26/15 15:50:03","Default description","no","mono","no","18","black","Ok","768","legacy","C:/Users/Elef/Downloads/subject-2303159.csv","xpyriment","Interactive Ising","3.0.2","0","m","NA","NA","m","297","NA","NA","297","legacy","experiment","2303159","odd","legacy","142792","NA","NA","NA","NA","309856","NA","NA","307954","309557","4592","309856","306453","306451","309556","4592","CogMod 2015 Experiment","50","14504","51","yes","1024"
"1","800","150","15","98.0769230769","98.0769230769","284","284","white","no","xpyriment","legacy","legacy","0","uniform","1","1","m","0","0","0","0","0","51","NA","NA","51","51","0","51","51","51","51","0","11/26/15 15:50:03","Default description","no","mono","no","18","black","Ok","768","legacy","C:/Users/Elef/Downloads/subject-2303159.csv","xpyriment","Interactive Ising","3.0.2","0","m","NA","NA","m","287","NA","NA","287","legacy","experiment","2303159","odd","legacy","142792","NA","NA","NA","NA","312989","NA","NA","311897","312700","4592","312989","310395","310393","312700","4592","CogMod 2015 Experiment","51","14791","52","yes","1024"
"1","800","-150","15","98.1132075472","98.1132075472","284","284","white","no","xpyriment","legacy","legacy","0","uniform","1","1","z","0","0","0","0","0","52","NA","NA","52","52","0","52","52","52","52","0","11/26/15 15:50:03","Default description","no","mono","no","18","black","Ok","768","legacy","C:/Users/Elef/Downloads/subject-2303159.csv","xpyriment","Interactive Ising","3.0.2","0","z","NA","NA","z","270","NA","NA","270","legacy","experiment","2303159","odd","legacy","142792","NA","NA","NA","NA","316107","NA","NA","315032","315835","4592","316107","313531","313530","315835","4592","CogMod 2015 Experiment","52","15061","53","yes","1024"
"1","1200","150","15","98.1481481481","98.1481481481","283","283","white","no","xpyriment","legacy","legacy","0","uniform","1","1","m","0","0","0","0","0","53","NA","NA","53","53","0","53","53","53","53","0","11/26/15 15:50:03","Default description","no","mono","no","18","black","Ok","768","legacy","C:/Users/Elef/Downloads/subject-2303159.csv","xpyriment","Interactive Ising","3.0.2","0","m","NA","NA","m","246","NA","NA","246","legacy","experiment","2303159","odd","legacy","142792","NA","NA","NA","NA","319542","NA","NA","318092","319295","4592","319542","316591","316590","319294","4592","CogMod 2015 Experiment","53","15307","54","yes","1024"
"1","1600","150","15","98.1818181818","98.1818181818","283","283","white","no","xpyriment","legacy","legacy","0","uniform","1","1","m","0","0","0","0","0","54","NA","NA","54","54","0","54","54","54","54","0","11/26/15 15:50:03","Default description","no","mono","no","18","black","Ok","768","legacy","C:/Users/Elef/Downloads/subject-2303159.csv","xpyriment","Interactive Ising","3.0.2","0","m","NA","NA","m","284","NA","NA","284","legacy","experiment","2303159","odd","legacy","142792","NA","NA","NA","NA","323411","NA","NA","321523","323126","4592","323411","320022","320020","323125","4592","CogMod 2015 Experiment","54","15591","55","yes","1024"
"1","1200","-150","15","98.2142857143","98.2142857143","282","282","white","no","xpyriment","legacy","legacy","0","uniform","1","1","z","0","0","0","0","0","55","NA","NA","55","55","0","55","55","55","55","0","11/26/15 15:50:03","Default description","no","mono","no","18","black","Ok","768","legacy","C:/Users/Elef/Downloads/subject-2303159.csv","xpyriment","Interactive Ising","3.0.2","0","z","NA","NA","z","246","NA","NA","246","legacy","experiment","2303159","odd","legacy","142792","NA","NA","NA","NA","326832","NA","NA","325382","326585","4592","326832","323881","323880","326584","4592","CogMod 2015 Experiment","55","15837","56","yes","1024"
"1","1200","150","15","98.2456140351","98.2456140351","281","281","white","no","xpyriment","legacy","legacy","0","uniform","1","1","m","0","0","0","0","0","56","NA","NA","56","56","0","56","56","56","56","0","11/26/15 15:50:03","Default description","no","mono","no","18","black","Ok","768","legacy","C:/Users/Elef/Downloads/subject-2303159.csv","xpyriment","Interactive Ising","3.0.2","0","m","NA","NA","m","236","NA","NA","236","legacy","experiment","2303159","odd","legacy","142792","NA","NA","NA","NA","330263","NA","NA","328823","330026","4592","330263","327322","327321","330025","4592","CogMod 2015 Experiment","56","16073","57","yes","1024"
"1","400","150","15","98.275862069","98.275862069","282","282","white","no","xpyriment","legacy","legacy","0","uniform","1","1","m","0","0","0","0","0","57","NA","NA","57","57","0","57","57","57","57","0","11/26/15 15:50:03","Default description","no","mono","no","18","black","Ok","768","legacy","C:/Users/Elef/Downloads/subject-2303159.csv","xpyriment","Interactive Ising","3.0.2","0","m","NA","NA","m","312","NA","NA","312","legacy","experiment","2303159","odd","legacy","142792","NA","NA","NA","NA","332961","NA","NA","332245","332648","4592","332961","330744","330743","332647","4592","CogMod 2015 Experiment","57","16385","58","yes","1024"
"1","800","150","15","98.3050847458","98.3050847458","281","281","white","no","xpyriment","legacy","legacy","0","uniform","1","1","m","0","0","0","0","0","58","NA","NA","58","58","0","58","58","58","58","0","11/26/15 15:50:03","Default description","no","mono","no","18","black","Ok","768","legacy","C:/Users/Elef/Downloads/subject-2303159.csv","xpyriment","Interactive Ising","3.0.2","0","m","NA","NA","m","252","NA","NA","252","legacy","experiment","2303159","odd","legacy","142792","NA","NA","NA","NA","335994","NA","NA","334938","335740","4592","335994","333436","333434","335739","4592","CogMod 2015 Experiment","58","16637","59","yes","1024"
"1","1600","150","15","98.3333333333","98.3333333333","281","281","white","no","xpyriment","legacy","legacy","0","uniform","1","1","m","0","0","0","0","0","59","NA","NA","59","59","0","59","59","59","59","0","11/26/15 15:50:03","Default description","no","mono","no","18","black","Ok","768","legacy","C:/Users/Elef/Downloads/subject-2303159.csv","xpyriment","Interactive Ising","3.0.2","0","m","NA","NA","m","267","NA","NA","267","legacy","experiment","2303159","odd","legacy","142792","NA","NA","NA","NA","339840","NA","NA","337968","339571","4592","339840","336467","336465","339571","4592","CogMod 2015 Experiment","59","16904","60","yes","1024"
"1","400","-150","15","98.3606557377","98.3606557377","283","283","white","no","xpyriment","legacy","legacy","0","uniform","1","1","z","0","0","0","0","0","60","NA","NA","60","60","0","60","60","60","60","0","11/26/15 15:50:03","Default description","no","mono","no","18","black","Ok","768","legacy","C:/Users/Elef/Downloads/subject-2303159.csv","xpyriment","Interactive Ising","3.0.2","0","z","NA","NA","z","367","NA","NA","367","legacy","experiment","2303159","odd","legacy","142792","NA","NA","NA","NA","342590","NA","NA","341819","342222","4592","342590","340318","340315","342221","4592","CogMod 2015 Experiment","60","17271","61","yes","1024"
"1","1600","150","15","98.3870967742","98.3870967742","282","282","white","no","xpyriment","legacy","legacy","0","uniform","1","1","m","0","0","0","0","0","61","NA","NA","61","61","0","61","61","61","61","0","11/26/15 15:50:03","Default description","no","mono","no","18","black","Ok","768","legacy","C:/Users/Elef/Downloads/subject-2303159.csv","xpyriment","Interactive Ising","3.0.2","0","m","NA","NA","m","249","NA","NA","249","legacy","experiment","2303159","odd","legacy","142792","NA","NA","NA","NA","346420","NA","NA","344567","346169","4592","346420","343065","343063","346169","4592","CogMod 2015 Experiment","61","17520","62","yes","1024"
"1","800","150","15","98.4126984127","98.4126984127","282","282","white","no","xpyriment","legacy","legacy","0","uniform","1","1","m","0","0","0","0","0","62","NA","NA","62","62","0","62","62","62","62","0","11/26/15 15:50:03","Default description","no","mono","no","18","black","Ok","768","legacy","C:/Users/Elef/Downloads/subject-2303159.csv","xpyriment","Interactive Ising","3.0.2","0","m","NA","NA","m","262","NA","NA","262","legacy","experiment","2303159","odd","legacy","142792","NA","NA","NA","NA","349462","NA","NA","348397","349199","4592","349462","346895","346894","349198","4592","CogMod 2015 Experiment","62","17782","63","yes","1024"
"1","1200","-150","15","98.4375","98.4375","281","281","white","no","xpyriment","legacy","legacy","0","uniform","1","1","z","0","0","0","0","0","63","NA","NA","63","63","0","63","63","63","63","0","11/26/15 15:50:03","Default description","no","mono","no","18","black","Ok","768","legacy","C:/Users/Elef/Downloads/subject-2303159.csv","xpyriment","Interactive Ising","3.0.2","0","z","NA","NA","z","242","NA","NA","242","legacy","experiment","2303159","odd","legacy","142792","NA","NA","NA","NA","352897","NA","NA","351452","352654","4592","352897","349949","349945","352653","4592","CogMod 2015 Experiment","63","18024","64","yes","1024"
"1","1200","-150","15","98.4615384615","98.4615384615","282","282","white","no","xpyriment","legacy","legacy","0","uniform","1","1","z","0","0","0","0","0","64","NA","NA","64","64","0","64","64","64","64","0","11/26/15 15:50:03","Default description","no","mono","no","18","black","Ok","768","legacy","C:/Users/Elef/Downloads/subject-2303159.csv","xpyriment","Interactive Ising","3.0.2","0","z","NA","NA","z","330","NA","NA","330","legacy","experiment","2303159","odd","legacy","142792","NA","NA","NA","NA","356418","NA","NA","354884","356087","4592","356418","353383","353382","356087","4592","CogMod 2015 Experiment","64","18354","65","yes","1024"
"1","400","150","15","98.4848484848","98.4848484848","282","282","white","no","xpyriment","legacy","legacy","0","uniform","1","1","m","0","0","0","0","0","65","NA","NA","65","65","0","65","65","65","65","0","11/26/15 15:50:03","Default description","no","mono","no","18","black","Ok","768","legacy","C:/Users/Elef/Downloads/subject-2303159.csv","xpyriment","Interactive Ising","3.0.2","0","m","NA","NA","m","303","NA","NA","303","legacy","experiment","2303159","odd","legacy","142792","NA","NA","NA","NA","359101","NA","NA","358395","358797","4592","359101","356894","356893","358797","4592","CogMod 2015 Experiment","65","18657","66","yes","1024"
"1","800","-150","15","98.5074626866","98.5074626866","282","282","white","no","xpyriment","legacy","legacy","0","uniform","1","1","z","0","0","0","0","0","66","NA","NA","66","66","0","66","66","66","66","0","11/26/15 15:50:03","Default description","no","mono","no","18","black","Ok","768","legacy","C:/Users/Elef/Downloads/subject-2303159.csv","xpyriment","Interactive Ising","3.0.2","0","z","NA","NA","z","264","NA","NA","264","legacy","experiment","2303159","odd","legacy","142792","NA","NA","NA","NA","362129","NA","NA","361061","361864","4592","362129","359560","359558","361864","4592","CogMod 2015 Experiment","66","18921","67","yes","1024"
"1","1600","-150","15","98.5294117647","98.5294117647","282","282","white","no","xpyriment","legacy","legacy","0","uniform","1","1","z","0","0","0","0","0","67","NA","NA","67","67","0","67","67","67","67","0","11/26/15 15:50:03","Default description","no","mono","no","18","black","Ok","768","legacy","C:/Users/Elef/Downloads/subject-2303159.csv","xpyriment","Interactive Ising","3.0.2","0","z","NA","NA","z","284","NA","NA","284","legacy","experiment","2303159","odd","legacy","142792","NA","NA","NA","NA","365990","NA","NA","364101","365704","4592","365990","362600","362599","365703","4592","CogMod 2015 Experiment","67","19205","68","yes","1024"
"1","400","-150","15","98.5507246377","98.5507246377","282","282","white","no","xpyriment","legacy","legacy","0","uniform","1","1","z","0","0","0","0","0","68","NA","NA","68","68","0","68","68","68","68","0","11/26/15 15:50:03","Default description","no","mono","no","18","black","Ok","768","legacy","C:/Users/Elef/Downloads/subject-2303159.csv","xpyriment","Interactive Ising","3.0.2","0","z","NA","NA","z","305","NA","NA","305","legacy","experiment","2303159","odd","legacy","142792","NA","NA","NA","NA","368668","NA","NA","367960","368362","4592","368668","366458","366457","368361","4592","CogMod 2015 Experiment","68","19510","69","yes","1024"
"1","1200","-150","15","98.5714285714","98.5714285714","282","282","white","no","xpyriment","legacy","legacy","0","uniform","1","1","z","0","0","0","0","0","69","NA","NA","69","69","0","69","69","69","69","0","11/26/15 15:50:03","Default description","no","mono","no","18","black","Ok","768","legacy","C:/Users/Elef/Downloads/subject-2303159.csv","xpyriment","Interactive Ising","3.0.2","0","z","NA","NA","z","242","NA","NA","242","legacy","experiment","2303159","odd","legacy","142792","NA","NA","NA","NA","372098","NA","NA","370652","371855","4592","372098","369151","369150","371854","4592","CogMod 2015 Experiment","69","19752","70","yes","1024"
"1","1600","-150","15","98.5915492958","98.5915492958","281","281","white","no","xpyriment","legacy","legacy","0","uniform","1","1","z","0","0","0","0","0","70","NA","NA","70","70","0","70","70","70","70","0","11/26/15 15:50:03","Default description","no","mono","no","18","black","Ok","768","legacy","C:/Users/Elef/Downloads/subject-2303159.csv","xpyriment","Interactive Ising","3.0.2","0","z","NA","NA","z","262","NA","NA","262","legacy","experiment","2303159","odd","legacy","142792","NA","NA","NA","NA","375944","NA","NA","374077","375680","4592","375944","372574","372572","375680","4592","CogMod 2015 Experiment","70","20014","71","yes","1024"
"1","400","-150","15","98.6111111111","98.6111111111","281","281","white","no","xpyriment","legacy","legacy","0","uniform","1","1","z","0","0","0","0","0","71","NA","NA","71","71","0","71","71","71","71","0","11/26/15 15:50:03","Default description","no","mono","no","18","black","Ok","768","legacy","C:/Users/Elef/Downloads/subject-2303159.csv","xpyriment","Interactive Ising","3.0.2","0","z","NA","NA","z","270","NA","NA","270","legacy","experiment","2303159","odd","legacy","142792","NA","NA","NA","NA","378586","NA","NA","377911","378314","4592","378587","376410","376409","378313","4592","CogMod 2015 Experiment","71","20284","72","yes","1024"
"1","1600","150","15","98.6301369863","98.6301369863","281","281","white","no","xpyriment","legacy","legacy","0","uniform","1","1","m","0","0","0","0","0","72","NA","NA","72","72","0","72","72","72","72","0","11/26/15 15:50:03","Default description","no","mono","no","18","black","Ok","768","legacy","C:/Users/Elef/Downloads/subject-2303159.csv","xpyriment","Interactive Ising","3.0.2","0","m","NA","NA","m","282","NA","NA","282","legacy","experiment","2303159","odd","legacy","142792","NA","NA","NA","NA","382434","NA","NA","380548","382151","4592","382434","379046","379044","382150","4592","CogMod 2015 Experiment","72","20566","73","yes","1024"
"1","1600","-150","15","98.6486486486","98.6486486486","281","281","white","no","xpyriment","legacy","legacy","0","uniform","1","1","z","0","0","0","0","0","73","NA","NA","73","73","0","73","73","73","73","0","11/26/15 15:50:03","Default description","no","mono","no","18","black","Ok","768","legacy","C:/Users/Elef/Downloads/subject-2303159.csv","xpyriment","Interactive Ising","3.0.2","0","z","NA","NA","z","258","NA","NA","258","legacy","experiment","2303159","odd","legacy","142792","NA","NA","NA","NA","386278","NA","NA","384415","386018","4592","386278","382913","382912","386017","4592","CogMod 2015 Experiment","73","20824","74","yes","1024"
"1","400","-150","15","98.6666666667","98.6666666667","282","282","white","no","xpyriment","legacy","legacy","0","uniform","1","1","z","0","0","0","0","0","74","NA","NA","74","74","0","74","74","74","74","0","11/26/15 15:50:03","Default description","no","mono","no","18","black","Ok","768","legacy","C:/Users/Elef/Downloads/subject-2303159.csv","xpyriment","Interactive Ising","3.0.2","0","z","NA","NA","z","335","NA","NA","335","legacy","experiment","2303159","odd","legacy","142792","NA","NA","NA","NA","388989","NA","NA","388251","388653","4592","388989","386749","386747","388652","4592","CogMod 2015 Experiment","74","21159","75","yes","1024"
"1","400","150","15","98.6842105263","98.6842105263","284","284","white","no","xpyriment","legacy","legacy","0","uniform","1","1","m","0","0","0","0","0","75","NA","NA","75","75","0","75","75","75","75","0","11/26/15 15:50:03","Default description","no","mono","no","18","black","Ok","768","legacy","C:/Users/Elef/Downloads/subject-2303159.csv","xpyriment","Interactive Ising","3.0.2","0","m","NA","NA","m","430","NA","NA","430","legacy","experiment","2303159","odd","legacy","142792","NA","NA","NA","NA","391877","NA","NA","391043","391446","4592","391877","389542","389540","391446","4592","CogMod 2015 Experiment","75","21589","76","yes","1024"
"1","400","-150","15","98.7012987013","98.7012987013","284","284","white","no","xpyriment","legacy","legacy","0","uniform","1","1","z","0","0","0","0","0","76","NA","NA","76","76","0","76","76","76","76","0","11/26/15 15:50:03","Default description","no","mono","no","18","black","Ok","768","legacy","C:/Users/Elef/Downloads/subject-2303159.csv","xpyriment","Interactive Ising","3.0.2","0","z","NA","NA","z","281","NA","NA","281","legacy","experiment","2303159","odd","legacy","142792","NA","NA","NA","NA","394544","NA","NA","393859","394261","4592","394544","392357","392355","394260","4592","CogMod 2015 Experiment","76","21870","77","yes","1024"
"1","800","150","15","98.7179487179","98.7179487179","283","283","white","no","xpyriment","legacy","legacy","0","uniform","1","1","m","0","0","0","0","0","77","NA","NA","77","77","0","77","77","77","77","0","11/26/15 15:50:03","Default description","no","mono","no","18","black","Ok","768","legacy","C:/Users/Elef/Downloads/subject-2303159.csv","xpyriment","Interactive Ising","3.0.2","0","m","NA","NA","m","273","NA","NA","273","legacy","experiment","2303159","odd","legacy","142792","NA","NA","NA","NA","397602","NA","NA","396524","397327","4592","397602","395022","395021","397327","4592","CogMod 2015 Experiment","77","22143","78","yes","1024"
"1","1600","-150","15","98.7341772152","98.7341772152","283","283","white","no","xpyriment","legacy","legacy","0","uniform","1","1","z","0","0","0","0","0","78","NA","NA","78","78","0","78","78","78","78","0","11/26/15 15:50:03","Default description","no","mono","no","18","black","Ok","768","legacy","C:/Users/Elef/Downloads/subject-2303159.csv","xpyriment","Interactive Ising","3.0.2","0","z","NA","NA","z","277","NA","NA","277","legacy","experiment","2303159","odd","legacy","142792","NA","NA","NA","NA","401442","NA","NA","399561","401164","4592","401443","398060","398058","401163","4592","CogMod 2015 Experiment","78","22420","79","yes","1024"
"1","800","150","15","98.75","98.75","283","283","white","no","xpyriment","legacy","legacy","0","uniform","1","1","m","0","0","0","0","0","79","NA","NA","79","79","0","79","79","79","79","0","11/26/15 15:50:03","Default description","no","mono","no","18","black","Ok","768","legacy","C:/Users/Elef/Downloads/subject-2303159.csv","xpyriment","Interactive Ising","3.0.2","0","m","NA","NA","m","260","NA","NA","260","legacy","experiment","2303159","odd","legacy","142792","NA","NA","NA","NA","404484","NA","NA","403420","404223","4592","404484","401919","401918","404222","4592","CogMod 2015 Experiment","79","22680","80","yes","1024"
"1","800","150","15","98.7654320988","98.7654320988","283","283","white","no","xpyriment","legacy","legacy","0","uniform","1","1","m","0","0","0","0","0","80","NA","NA","80","80","0","80","80","80","80","0","11/26/15 15:50:03","Default description","no","mono","no","18","black","Ok","768","legacy","C:/Users/Elef/Downloads/subject-2303159.csv","xpyriment","Interactive Ising","3.0.2","0","m","NA","NA","m","266","NA","NA","266","legacy","experiment","2303159","odd","legacy","142792","NA","NA","NA","NA","407524","NA","NA","406454","407256","4592","407524","404952","404950","407255","4592","CogMod 2015 Experiment","80","22946","81","yes","1024"
"1","400","-150","15","98.7804878049","98.7804878049","283","283","white","no","xpyriment","legacy","legacy","0","uniform","1","1","z","0","0","0","0","0","81","NA","NA","81","81","0","81","81","81","81","0","11/26/15 15:50:03","Default description","no","mono","no","18","black","Ok","768","legacy","C:/Users/Elef/Downloads/subject-2303159.csv","xpyriment","Interactive Ising","3.0.2","0","z","NA","NA","z","304","NA","NA","304","legacy","experiment","2303159","odd","legacy","142792","NA","NA","NA","NA","410221","NA","NA","409513","409916","4592","410221","408012","408011","409915","4592","CogMod 2015 Experiment","81","23250","82","yes","1024"
"1","1200","-150","15","98.7951807229","98.7951807229","283","283","white","no","xpyriment","legacy","legacy","0","uniform","1","1","z","0","0","0","0","0","82","NA","NA","82","82","0","82","82","82","82","0","11/26/15 15:50:03","Default description","no","mono","no","18","black","Ok","768","legacy","C:/Users/Elef/Downloads/subject-2303159.csv","xpyriment","Interactive Ising","3.0.2","0","z","NA","NA","z","293","NA","NA","293","legacy","experiment","2303159","odd","legacy","142792","NA","NA","NA","NA","413689","NA","NA","412193","413395","4592","413689","410691","410690","413394","4592","CogMod 2015 Experiment","82","23543","83","yes","1024"
"1","800","-150","15","98.8095238095","98.8095238095","283","283","white","no","xpyriment","legacy","legacy","0","uniform","1","1","z","0","0","0","0","0","83","NA","NA","83","83","0","83","83","83","83","0","11/26/15 15:50:03","Default description","no","mono","no","18","black","Ok","768","legacy","C:/Users/Elef/Downloads/subject-2303159.csv","xpyriment","Interactive Ising","3.0.2","0","z","NA","NA","z","287","NA","NA","287","legacy","experiment","2303159","odd","legacy","142792","NA","NA","NA","NA","416758","NA","NA","415667","416470","4592","416758","414166","414164","416469","4592","CogMod 2015 Experiment","83","23830","84","yes","1024"
"1","1600","150","15","98.8235294118","98.8235294118","283","283","white","no","xpyriment","legacy","legacy","0","uniform","1","1","m","0","0","0","0","0","84","NA","NA","84","84","0","84","84","84","84","0","11/26/15 15:50:03","Default description","no","mono","no","18","black","Ok","768","legacy","C:/Users/Elef/Downloads/subject-2303159.csv","xpyriment","Interactive Ising","3.0.2","0","m","NA","NA","m","231","NA","NA","231","legacy","experiment","2303159","odd","legacy","142792","NA","NA","NA","NA","420556","NA","NA","418721","420324","4592","420556","417220","417218","420323","4592","CogMod 2015 Experiment","84","24061","85","yes","1024"
"1","400","-150","15","98.8372093023","98.8372093023","283","283","white","no","xpyriment","legacy","legacy","0","uniform","1","1","z","0","0","0","0","0","85","NA","NA","85","85","0","85","85","85","85","0","11/26/15 15:50:03","Default description","no","mono","no","18","black","Ok","768","legacy","C:/Users/Elef/Downloads/subject-2303159.csv","xpyriment","Interactive Ising","3.0.2","0","z","NA","NA","z","322","NA","NA","322","legacy","experiment","2303159","odd","legacy","142792","NA","NA","NA","NA","423264","NA","NA","422538","422941","4592","423264","421036","421034","422940","4592","CogMod 2015 Experiment","85","24383","86","yes","1024"
"1","400","-150","15","98.8505747126","98.8505747126","283","283","white","no","xpyriment","legacy","legacy","0","uniform","1","1","z","0","0","0","0","0","86","NA","NA","86","86","0","86","86","86","86","0","11/26/15 15:50:03","Default description","no","mono","no","18","black","Ok","768","legacy","C:/Users/Elef/Downloads/subject-2303159.csv","xpyriment","Interactive Ising","3.0.2","0","z","NA","NA","z","299","NA","NA","299","legacy","experiment","2303159","odd","legacy","142792","NA","NA","NA","NA","425940","NA","NA","425237","425639","4592","425940","423735","423731","425638","4592","CogMod 2015 Experiment","86","24682","87","yes","1024"
"1","400","150","15","98.8636363636","98.8636363636","283","283","white","no","xpyriment","legacy","legacy","0","uniform","1","1","m","0","0","0","0","0","87","NA","NA","87","87","0","87","87","87","87","0","11/26/15 15:50:03","Default description","no","mono","no","18","black","Ok","768","legacy","C:/Users/Elef/Downloads/subject-2303159.csv","xpyriment","Interactive Ising","3.0.2","0","m","NA","NA","m","285","NA","NA","285","legacy","experiment","2303159","odd","legacy","142792","NA","NA","NA","NA","428613","NA","NA","427923","428326","4592","428613","426422","426420","428325","4592","CogMod 2015 Experiment","87","24967","88","yes","1024"
"1","1200","-150","15","98.8764044944","98.8764044944","283","283","white","no","xpyriment","legacy","legacy","0","uniform","1","1","z","0","0","0","0","0","88","NA","NA","88","88","0","88","88","88","88","0","11/26/15 15:50:03","Default description","no","mono","no","18","black","Ok","768","legacy","C:/Users/Elef/Downloads/subject-2303159.csv","xpyriment","Interactive Ising","3.0.2","0","z","NA","NA","z","238","NA","NA","238","legacy","experiment","2303159","odd","legacy","142792","NA","NA","NA","NA","432043","NA","NA","430601","431804","4592","432044","429099","429098","431803","4592","CogMod 2015 Experiment","88","25205","89","yes","1024"
"1","1600","-150","15","98.8888888889","98.8888888889","282","282","white","no","xpyriment","legacy","legacy","0","uniform","1","1","z","0","0","0","0","0","89","NA","NA","89","89","0","89","89","89","89","0","11/26/15 15:50:03","Default description","no","mono","no","18","black","Ok","768","legacy","C:/Users/Elef/Downloads/subject-2303159.csv","xpyriment","Interactive Ising","3.0.2","0","z","NA","NA","z","263","NA","NA","263","legacy","experiment","2303159","odd","legacy","142792","NA","NA","NA","NA","435897","NA","NA","434031","435633","4592","435897","432529","432527","435632","4592","CogMod 2015 Experiment","89","25468","90","yes","1024"
"1","1600","150","15","98.9010989011","98.9010989011","282","282","white","no","xpyriment","legacy","legacy","0","uniform","1","1","m","0","0","0","0","0","90","NA","NA","90","90","0","90","90","90","90","0","11/26/15 15:50:03","Default description","no","mono","no","18","black","Ok","768","legacy","C:/Users/Elef/Downloads/subject-2303159.csv","xpyriment","Interactive Ising","3.0.2","0","m","NA","NA","m","248","NA","NA","248","legacy","experiment","2303159","odd","legacy","142792","NA","NA","NA","NA","439734","NA","NA","437882","439484","4592","439734","436379","436377","439483","4592","CogMod 2015 Experiment","90","25716","91","yes","1024"
"1","400","150","15","98.9130434783","98.9130434783","283","283","white","no","xpyriment","legacy","legacy","0","uniform","1","1","m","0","0","0","0","0","91","NA","NA","91","91","0","91","91","91","91","0","11/26/15 15:50:03","Default description","no","mono","no","18","black","Ok","768","legacy","C:/Users/Elef/Downloads/subject-2303159.csv","xpyriment","Interactive Ising","3.0.2","0","m","NA","NA","m","399","NA","NA","399","legacy","experiment","2303159","odd","legacy","142792","NA","NA","NA","NA","442508","NA","NA","441705","442108","4592","442508","440203","440201","442108","4592","CogMod 2015 Experiment","91","26115","92","yes","1024"
"1","1200","150","15","98.9247311828","98.9247311828","283","283","white","no","xpyriment","legacy","legacy","0","uniform","1","1","m","0","0","0","0","0","92","NA","NA","92","92","0","92","92","92","92","0","11/26/15 15:50:03","Default description","no","mono","no","18","black","Ok","768","legacy","C:/Users/Elef/Downloads/subject-2303159.csv","xpyriment","Interactive Ising","3.0.2","0","m","NA","NA","m","267","NA","NA","267","legacy","experiment","2303159","odd","legacy","142792","NA","NA","NA","NA","445967","NA","NA","444495","445698","4592","445967","442993","442991","445697","4592","CogMod 2015 Experiment","92","26382","93","yes","1024"
"1","800","150","15","98.9361702128","98.9361702128","283","283","white","no","xpyriment","legacy","legacy","0","uniform","1","1","m","0","0","0","0","0","93","NA","NA","93","93","0","93","93","93","93","0","11/26/15 15:50:03","Default description","no","mono","no","18","black","Ok","768","legacy","C:/Users/Elef/Downloads/subject-2303159.csv","xpyriment","Interactive Ising","3.0.2","0","m","NA","NA","m","283","NA","NA","283","legacy","experiment","2303159","odd","legacy","142792","NA","NA","NA","NA","449023","NA","NA","447937","448739","4592","449023","446435","446433","448739","4592","CogMod 2015 Experiment","93","26665","94","yes","1024"
"1","800","-150","15","98.9473684211","98.9473684211","283","283","white","no","xpyriment","legacy","legacy","0","uniform","1","1","z","0","0","0","0","0","94","NA","NA","94","94","0","94","94","94","94","0","11/26/15 15:50:03","Default description","no","mono","no","18","black","Ok","768","legacy","C:/Users/Elef/Downloads/subject-2303159.csv","xpyriment","Interactive Ising","3.0.2","0","z","NA","NA","z","275","NA","NA","275","legacy","experiment","2303159","odd","legacy","142792","NA","NA","NA","NA","452083","NA","NA","451004","451806","4592","452083","449502","449500","451805","4592","CogMod 2015 Experiment","94","26940","95","yes","1024"
"1","1600","-150","15","98.9583333333","98.9583333333","283","283","white","no","xpyriment","legacy","legacy","0","uniform","1","1","z","0","0","0","0","0","95","NA","NA","95","95","0","95","95","95","95","0","11/26/15 15:50:03","Default description","no","mono","no","18","black","Ok","768","legacy","C:/Users/Elef/Downloads/subject-2303159.csv","xpyriment","Interactive Ising","3.0.2","0","z","NA","NA","z","306","NA","NA","306","legacy","experiment","2303159","odd","legacy","142792","NA","NA","NA","NA","455955","NA","NA","454045","455647","4592","455955","452543","452541","455647","4592","CogMod 2015 Experiment","95","27246","96","yes","1024"
"1","800","-150","15","98.9690721649","98.9690721649","283","283","white","no","xpyriment","legacy","legacy","0","uniform","1","1","z","0","0","0","0","0","96","NA","NA","96","96","0","96","96","96","96","0","11/26/15 15:50:03","Default description","no","mono","no","18","black","Ok","768","legacy","C:/Users/Elef/Downloads/subject-2303159.csv","xpyriment","Interactive Ising","3.0.2","0","z","NA","NA","z","282","NA","NA","282","legacy","experiment","2303159","odd","legacy","142792","NA","NA","NA","NA","459016","NA","NA","457931","458733","4592","459016","456429","456427","458733","4592","CogMod 2015 Experiment","96","27528","97","yes","1024"
"1","800","150","15","98.9795918367","98.9795918367","284","284","white","no","xpyriment","legacy","legacy","0","uniform","1","1","m","0","0","0","0","0","97","NA","NA","97","97","0","97","97","97","97","0","11/26/15 15:50:03","Default description","no","mono","no","18","black","Ok","768","legacy","C:/Users/Elef/Downloads/subject-2303159.csv","xpyriment","Interactive Ising","3.0.2","0","m","NA","NA","m","317","NA","NA","317","legacy","experiment","2303159","odd","legacy","142792","NA","NA","NA","NA","462096","NA","NA","460975","461778","4592","462096","459473","459472","461778","4592","CogMod 2015 Experiment","97","27845","98","yes","1024"
"1","400","-150","15","98.9898989899","98.9898989899","284","284","white","no","xpyriment","legacy","legacy","0","uniform","1","1","z","0","0","0","0","0","98","NA","NA","98","98","0","98","98","98","98","0","11/26/15 15:50:03","Default description","no","mono","no","18","black","Ok","768","legacy","C:/Users/Elef/Downloads/subject-2303159.csv","xpyriment","Interactive Ising","3.0.2","0","z","NA","NA","z","281","NA","NA","281","legacy","experiment","2303159","odd","legacy","142792","NA","NA","NA","NA","464836","NA","NA","464152","464554","4592","464836","462650","462649","464553","4592","CogMod 2015 Experiment","98","28126","99","yes","1024"
"1","400","-150","15","99","99","284","284","white","no","xpyriment","legacy","legacy","0","uniform","1","1","z","0","0","0","0","0","99","NA","NA","99","99","0","99","99","99","99","0","11/26/15 15:50:03","Default description","no","mono","no","18","black","Ok","768","legacy","C:/Users/Elef/Downloads/subject-2303159.csv","xpyriment","Interactive Ising","3.0.2","0","z","NA","NA","z","329","NA","NA","329","legacy","experiment","2303159","odd","legacy","142792","NA","NA","NA","NA","467539","NA","NA","466807","467209","4592","467539","465305","465303","467208","4592","CogMod 2015 Experiment","99","28455","100","yes","1024"
"1","400","-150","15","99.0099009901","99.0099009901","284","284","white","no","xpyriment","legacy","legacy","0","uniform","1","1","z","0","0","0","0","0","100","NA","NA","100","100","0","100","100","100","100","0","11/26/15 15:50:03","Default description","no","mono","no","18","black","Ok","768","legacy","C:/Users/Elef/Downloads/subject-2303159.csv","xpyriment","Interactive Ising","3.0.2","0","z","NA","NA","z","250","NA","NA","250","legacy","experiment","2303159","odd","legacy","142792","NA","NA","NA","NA","470173","NA","NA","469518","469921","4592","470173","468015","468015","469920","4592","CogMod 2015 Experiment","100","28705","101","yes","1024"
"1","1200","-150","15","99.0196078431","99.0196078431","283","283","white","no","xpyriment","legacy","legacy","0","uniform","1","1","z","0","0","0","0","0","101","NA","NA","101","101","0","101","101","101","101","0","11/26/15 15:50:03","Default description","no","mono","no","18","black","Ok","768","legacy","C:/Users/Elef/Downloads/subject-2303159.csv","xpyriment","Interactive Ising","3.0.2","0","z","NA","NA","z","253","NA","NA","253","legacy","experiment","2303159","odd","legacy","142792","NA","NA","NA","NA","473729","NA","NA","472271","473474","4592","473729","470770","470768","473473","4592","CogMod 2015 Experiment","101","28958","102","yes","1024"
"1","1200","150","15","99.0291262136","99.0291262136","284","284","white","no","xpyriment","legacy","legacy","0","uniform","1","1","m","0","0","0","0","0","102","NA","NA","102","102","0","102","102","102","102","0","11/26/15 15:50:03","Default description","no","mono","no","18","black","Ok","768","legacy","C:/Users/Elef/Downloads/subject-2303159.csv","xpyriment","Interactive Ising","3.0.2","0","m","NA","NA","m","319","NA","NA","319","legacy","experiment","2303159","odd","legacy","142792","NA","NA","NA","NA","477238","NA","NA","475714","476917","4592","477238","474213","474211","476916","4592","CogMod 2015 Experiment","102","29277","103","yes","1024"
"1","800","-150","15","99.0384615385","99.0384615385","284","284","white","no","xpyriment","legacy","legacy","0","uniform","1","1","z","0","0","0","0","0","103","NA","NA","103","103","0","103","103","103","103","0","11/26/15 15:50:03","Default description","no","mono","no","18","black","Ok","768","legacy","C:/Users/Elef/Downloads/subject-2303159.csv","xpyriment","Interactive Ising","3.0.2","0","z","NA","NA","z","306","NA","NA","306","legacy","experiment","2303159","odd","legacy","142792","NA","NA","NA","NA","480317","NA","NA","479208","480010","4592","480317","477707","477705","480010","4592","CogMod 2015 Experiment","103","29583","104","yes","1024"
"1","1200","150","15","99.0476190476","99.0476190476","284","284","white","no","xpyriment","legacy","legacy","0","uniform","1","1","m","0","0","0","0","0","104","NA","NA","104","104","0","104","104","104","104","0","11/26/15 15:50:03","Default description","no","mono","no","18","black","Ok","768","legacy","C:/Users/Elef/Downloads/subject-2303159.csv","xpyriment","Interactive Ising","3.0.2","0","m","NA","NA","m","282","NA","NA","282","legacy","experiment","2303159","odd","legacy","142792","NA","NA","NA","NA","483782","NA","NA","482296","483499","4592","483782","480795","480793","483498","4592","CogMod 2015 Experiment","104","29865","105","yes","1024"
"1","1600","150","15","99.0566037736","99.0566037736","284","284","white","no","xpyriment","legacy","legacy","0","uniform","1","1","m","0","0","0","0","0","105","NA","NA","105","105","0","105","105","105","105","0","11/26/15 15:50:03","Default description","no","mono","no","18","black","Ok","768","legacy","C:/Users/Elef/Downloads/subject-2303159.csv","xpyriment","Interactive Ising","3.0.2","0","m","NA","NA","m","302","NA","NA","302","legacy","experiment","2303159","odd","legacy","142792","NA","NA","NA","NA","487667","NA","NA","485760","487363","4592","487667","484259","484258","487362","4592","CogMod 2015 Experiment","105","30167","106","yes","1024"
"1","400","-150","15","99.0654205607","99.0654205607","285","285","white","no","xpyriment","legacy","legacy","0","uniform","1","1","z","0","0","0","0","0","106","NA","NA","106","106","0","106","106","106","106","0","11/26/15 15:50:03","Default description","no","mono","no","18","black","Ok","768","legacy","C:/Users/Elef/Downloads/subject-2303159.csv","xpyriment","Interactive Ising","3.0.2","0","z","NA","NA","z","375","NA","NA","375","legacy","experiment","2303159","odd","legacy","142792","NA","NA","NA","NA","490462","NA","NA","489684","490086","4592","490463","488182","488180","490085","4592","CogMod 2015 Experiment","106","30542","107","yes","1024"
"1","1600","-150","15","99.0740740741","99.0740740741","285","285","white","no","xpyriment","legacy","legacy","0","uniform","1","1","z","0","0","0","0","0","107","NA","NA","107","107","0","107","107","107","107","0","11/26/15 15:50:03","Default description","no","mono","no","18","black","Ok","768","legacy","C:/Users/Elef/Downloads/subject-2303159.csv","xpyriment","Interactive Ising","3.0.2","0","z","NA","NA","z","265","NA","NA","265","legacy","experiment","2303159","odd","legacy","142792","NA","NA","NA","NA","494309","NA","NA","492440","494043","4592","494309","490939","490938","494042","4592","CogMod 2015 Experiment","107","30807","108","yes","1024"
"1","1200","150","15","99.0825688073","99.0825688073","284","284","white","no","xpyriment","legacy","legacy","0","uniform","1","1","m","0","0","0","0","0","108","NA","NA","108","108","0","108","108","108","108","0","11/26/15 15:50:03","Default description","no","mono","no","18","black","Ok","768","legacy","C:/Users/Elef/Downloads/subject-2303159.csv","xpyriment","Interactive Ising","3.0.2","0","m","NA","NA","m","216","NA","NA","216","legacy","experiment","2303159","odd","legacy","142792","NA","NA","NA","NA","497712","NA","NA","496291","497494","4592","497712","494788","494786","497494","4592","CogMod 2015 Experiment","108","31023","109","yes","1024"
"1","1600","-150","15","99.0909090909","99.0909090909","284","284","white","no","xpyriment","legacy","legacy","0","uniform","1","1","z","0","0","0","0","0","109","NA","NA","109","109","0","109","109","109","109","0","11/26/15 15:50:03","Default description","no","mono","no","18","black","Ok","768","legacy","C:/Users/Elef/Downloads/subject-2303159.csv","xpyriment","Interactive Ising","3.0.2","0","z","NA","NA","z","262","NA","NA","262","legacy","experiment","2303159","odd","legacy","142792","NA","NA","NA","NA","501561","NA","NA","499694","501297","4592","501561","498192","498188","501296","4592","CogMod 2015 Experiment","109","31285","110","yes","1024"
"1","1200","-150","15","99.0990990991","99.0990990991","285","285","white","no","xpyriment","legacy","legacy","0","uniform","1","1","z","0","0","0","0","0","110","NA","NA","110","110","0","110","110","110","110","0","11/26/15 15:50:03","Default description","no","mono","no","18","black","Ok","768","legacy","C:/Users/Elef/Downloads/subject-2303159.csv","xpyriment","Interactive Ising","3.0.2","0","z","NA","NA","z","368","NA","NA","368","legacy","experiment","2303159","odd","legacy","142792","NA","NA","NA","NA","505113","NA","NA","503542","504744","4592","505113","502040","502038","504743","4592","CogMod 2015 Experiment","110","31653","111","yes","1024"
"1","400","150","15","99.1071428571","99.1071428571","285","285","white","no","xpyriment","legacy","legacy","0","uniform","1","1","m","0","0","0","0","0","111","NA","NA","111","111","0","111","111","111","111","0","11/26/15 15:50:03","Default description","no","mono","no","18","black","Ok","768","legacy","C:/Users/Elef/Downloads/subject-2303159.csv","xpyriment","Interactive Ising","3.0.2","0","m","NA","NA","m","290","NA","NA","290","legacy","experiment","2303159","odd","legacy","142792","NA","NA","NA","NA","507783","NA","NA","507090","507492","4592","507783","505588","505586","507491","4592","CogMod 2015 Experiment","111","31943","112","yes","1024"
"1","1200","150","15","99.1150442478","99.1150442478","285","285","white","no","xpyriment","legacy","legacy","0","uniform","1","1","m","0","0","0","0","0","112","NA","NA","112","112","0","112","112","112","112","0","11/26/15 15:50:03","Default description","no","mono","no","18","black","Ok","768","legacy","C:/Users/Elef/Downloads/subject-2303159.csv","xpyriment","Interactive Ising","3.0.2","0","m","NA","NA","m","292","NA","NA","292","legacy","experiment","2303159","odd","legacy","142792","NA","NA","NA","NA","511254","NA","NA","509757","510960","4592","511254","508256","508255","510960","4592","CogMod 2015 Experiment","112","32235","113","yes","1024"
"1","1600","-150","15","99.1228070175","99.1228070175","285","285","white","no","xpyriment","legacy","legacy","0","uniform","1","1","z","0","0","0","0","0","113","NA","NA","113","113","0","113","113","113","113","0","11/26/15 15:50:03","Default description","no","mono","no","18","black","Ok","768","legacy","C:/Users/Elef/Downloads/subject-2303159.csv","xpyriment","Interactive Ising","3.0.2","0","z","NA","NA","z","275","NA","NA","275","legacy","experiment","2303159","odd","legacy","142792","NA","NA","NA","NA","515112","NA","NA","513234","514836","4592","515112","511732","511731","514835","4592","CogMod 2015 Experiment","113","32510","114","yes","1024"
"1","1200","-150","15","99.1304347826","99.1304347826","285","285","white","no","xpyriment","legacy","legacy","0","uniform","1","1","z","0","0","0","0","0","114","NA","NA","114","114","0","114","114","114","114","0","11/26/15 15:50:03","Default description","no","mono","no","18","black","Ok","768","legacy","C:/Users/Elef/Downloads/subject-2303159.csv","xpyriment","Interactive Ising","3.0.2","0","z","NA","NA","z","291","NA","NA","291","legacy","experiment","2303159","odd","legacy","142792","NA","NA","NA","NA","518622","NA","NA","517127","518329","4592","518622","515624","515623","518329","4592","CogMod 2015 Experiment","114","32801","115","yes","1024"
"1","800","150","15","99.1379310345","99.1379310345","285","285","white","no","xpyriment","legacy","legacy","0","uniform","1","1","m","0","0","0","0","0","115","NA","NA","115","115","0","115","115","115","115","0","11/26/15 15:50:03","Default description","no","mono","no","18","black","Ok","768","legacy","C:/Users/Elef/Downloads/subject-2303159.csv","xpyriment","Interactive Ising","3.0.2","0","m","NA","NA","m","302","NA","NA","302","legacy","experiment","2303159","odd","legacy","142792","NA","NA","NA","NA","521695","NA","NA","520589","521392","4592","521696","519088","519086","521391","4592","CogMod 2015 Experiment","115","33103","116","yes","1024"
"1","800","150","15","99.1452991453","99.1452991453","285","285","white","no","xpyriment","legacy","legacy","0","uniform","1","1","m","0","0","0","0","0","116","NA","NA","116","116","0","116","116","116","116","0","11/26/15 15:50:03","Default description","no","mono","no","18","black","Ok","768","legacy","C:/Users/Elef/Downloads/subject-2303159.csv","xpyriment","Interactive Ising","3.0.2","0","m","NA","NA","m","286","NA","NA","286","legacy","experiment","2303159","odd","legacy","142792","NA","NA","NA","NA","524748","NA","NA","523658","524461","4592","524748","522156","522155","524460","4592","CogMod 2015 Experiment","116","33389","117","yes","1024"
"1","1600","150","15","99.1525423729","99.1525423729","285","285","white","no","xpyriment","legacy","legacy","0","uniform","1","1","m","0","0","0","0","0","117","NA","NA","117","117","0","117","117","117","117","0","11/26/15 15:50:03","Default description","no","mono","no","18","black","Ok","768","legacy","C:/Users/Elef/Downloads/subject-2303159.csv","xpyriment","Interactive Ising","3.0.2","0","m","NA","NA","m","263","NA","NA","263","legacy","experiment","2303159","odd","legacy","142792","NA","NA","NA","NA","528604","NA","NA","526737","528339","4592","528604","525234","525233","528338","4592","CogMod 2015 Experiment","117","33652","118","yes","1024"
"1","800","150","15","99.1596638655","99.1596638655","285","285","white","no","xpyriment","legacy","legacy","0","uniform","1","1","m","0","0","0","0","0","118","NA","NA","118","118","0","118","118","118","118","0","11/26/15 15:50:03","Default description","no","mono","no","18","black","Ok","768","legacy","C:/Users/Elef/Downloads/subject-2303159.csv","xpyriment","Interactive Ising","3.0.2","0","m","NA","NA","m","269","NA","NA","269","legacy","experiment","2303159","odd","legacy","142792","NA","NA","NA","NA","531639","NA","NA","530567","531369","4592","531639","529066","529064","531368","4592","CogMod 2015 Experiment","118","33921","119","yes","1024"
"1","1200","150","15","99.1666666667","99.1666666667","285","285","white","no","xpyriment","legacy","legacy","0","uniform","1","1","m","0","0","0","0","0","119","NA","NA","119","119","0","119","119","119","119","0","11/26/15 15:50:03","Default description","no","mono","no","18","black","Ok","768","legacy","C:/Users/Elef/Downloads/subject-2303159.csv","xpyriment","Interactive Ising","3.0.2","0","m","NA","NA","m","281","NA","NA","281","legacy","experiment","2303159","odd","legacy","142792","NA","NA","NA","NA","535111","NA","NA","533625","534828","4592","535111","532124","532122","534828","4592","CogMod 2015 Experiment","119","34202","120","yes","1024"
"2","1200","150","16","100","100","252","252","white","no","xpyriment","legacy","legacy","0","uniform","1","1","m","0","0","0","0","0","120","0","NA","120","120","0","120","120","120","120","0","11/26/15 15:50:03","Default description","no","mono","no","18","black","Ok","768","legacy","C:/Users/Elef/Downloads/subject-2303159.csv","xpyriment","Interactive Ising","3.0.2","0","m","space","NA","m","252","39449","NA","252","legacy","experiment","2303159","odd","legacy","142792","575192","NA","NA","NA","578707","535742","NA","577251","578454","4592","578707","575749","575748","578453","4592","CogMod 2015 Experiment","1","252","1","yes","1024"
"2","800","150","8","100","100","260","260","white","no","xpyriment","legacy","legacy","0","uniform","1","1","m","0","0","0","0","0","121","0","NA","121","121","0","121","121","121","121","0","11/26/15 15:50:03","Default description","no","mono","no","18","black","Ok","768","legacy","C:/Users/Elef/Downloads/subject-2303159.csv","xpyriment","Interactive Ising","3.0.2","0","m","space","NA","m","269","39449","NA","269","legacy","experiment","2303159","odd","legacy","142792","575192","NA","NA","NA","581791","535742","NA","580719","581521","4592","581791","579216","579214","581521","4592","CogMod 2015 Experiment","2","521","2","yes","1024"
"2","800","-150","8","100","100","262","262","white","no","xpyriment","legacy","legacy","0","uniform","1","1","z","0","0","0","0","0","122","0","NA","122","122","0","122","122","122","122","0","11/26/15 15:50:03","Default description","no","mono","no","18","black","Ok","768","legacy","C:/Users/Elef/Downloads/subject-2303159.csv","xpyriment","Interactive Ising","3.0.2","0","z","space","NA","z","266","39449","NA","266","legacy","experiment","2303159","odd","legacy","142792","575192","NA","NA","NA","584842","535742","NA","583773","584575","4592","584842","582271","582269","584575","4592","CogMod 2015 Experiment","3","787","3","yes","1024"
"2","1600","150","32","100","100","254","254","white","no","xpyriment","legacy","legacy","0","uniform","1","1","m","0","0","0","0","0","123","0","NA","123","123","0","123","123","123","123","0","11/26/15 15:50:03","Default description","no","mono","no","18","black","Ok","768","legacy","C:/Users/Elef/Downloads/subject-2303159.csv","xpyriment","Interactive Ising","3.0.2","0","m","space","NA","m","230","39449","NA","230","legacy","experiment","2303159","odd","legacy","142792","575192","NA","NA","NA","588646","535742","NA","586813","588415","4592","588646","585311","585310","588414","4592","CogMod 2015 Experiment","4","1017","4","yes","1024"
"2","1600","150","32","100","100","261","261","white","no","xpyriment","legacy","legacy","0","uniform","1","1","m","0","0","0","0","0","124","0","NA","124","124","0","124","124","124","124","0","11/26/15 15:50:03","Default description","no","mono","no","18","black","Ok","768","legacy","C:/Users/Elef/Downloads/subject-2303159.csv","xpyriment","Interactive Ising","3.0.2","0","m","space","NA","m","290","39449","NA","290","legacy","experiment","2303159","odd","legacy","142792","575192","NA","NA","NA","592588","535742","NA","590693","592296","4592","592588","589192","589191","592295","4592","CogMod 2015 Experiment","5","1307","5","yes","1024"
"2","1600","150","32","100","100","261","261","white","no","xpyriment","legacy","legacy","0","uniform","1","1","m","0","0","0","0","0","125","0","NA","125","125","0","125","125","125","125","0","11/26/15 15:50:03","Default description","no","mono","no","18","black","Ok","768","legacy","C:/Users/Elef/Downloads/subject-2303159.csv","xpyriment","Interactive Ising","3.0.2","0","m","space","NA","m","264","39449","NA","264","legacy","experiment","2303159","odd","legacy","142792","575192","NA","NA","NA","596416","535742","NA","594547","596150","4592","596416","593045","593044","596149","4592","CogMod 2015 Experiment","6","1571","6","yes","1024"
"2","800","150","8","100","100","266","266","white","no","xpyriment","legacy","legacy","0","uniform","1","1","m","0","0","0","0","0","126","0","NA","126","126","0","126","126","126","126","0","11/26/15 15:50:03","Default description","no","mono","no","18","black","Ok","768","legacy","C:/Users/Elef/Downloads/subject-2303159.csv","xpyriment","Interactive Ising","3.0.2","0","m","space","NA","m","294","39449","NA","294","legacy","experiment","2303159","odd","legacy","142792","575192","NA","NA","NA","599501","535742","NA","598402","599205","4592","599501","596900","596899","599205","4592","CogMod 2015 Experiment","7","1865","7","yes","1024"
"2","1600","-150","32","100","100","265","265","white","no","xpyriment","legacy","legacy","0","uniform","1","1","z","0","0","0","0","0","127","0","NA","127","127","0","127","127","127","127","0","11/26/15 15:50:03","Default description","no","mono","no","18","black","Ok","768","legacy","C:/Users/Elef/Downloads/subject-2303159.csv","xpyriment","Interactive Ising","3.0.2","0","z","space","NA","z","258","39449","NA","258","legacy","experiment","2303159","odd","legacy","142792","575192","NA","NA","NA","603352","535742","NA","601490","603093","4592","603352","599988","599986","603092","4592","CogMod 2015 Experiment","8","2123","8","yes","1024"
"2","1200","150","16","100","100","270","270","white","no","xpyriment","legacy","legacy","0","uniform","1","1","m","0","0","0","0","0","128","0","NA","128","128","0","128","128","128","128","0","11/26/15 15:50:03","Default description","no","mono","no","18","black","Ok","768","legacy","C:/Users/Elef/Downloads/subject-2303159.csv","xpyriment","Interactive Ising","3.0.2","0","m","space","NA","m","313","39449","NA","313","legacy","experiment","2303159","odd","legacy","142792","575192","NA","NA","NA","606879","535742","NA","605362","606565","4592","606879","603860","603859","606564","4592","CogMod 2015 Experiment","9","2436","9","yes","1024"
"2","1600","-150","32","100","100","276","276","white","no","xpyriment","legacy","legacy","0","uniform","1","1","z","0","0","0","0","0","129","0","NA","129","129","0","129","129","129","129","0","11/26/15 15:50:03","Default description","no","mono","no","18","black","Ok","768","legacy","C:/Users/Elef/Downloads/subject-2303159.csv","xpyriment","Interactive Ising","3.0.2","0","z","space","NA","z","329","39449","NA","329","legacy","experiment","2303159","odd","legacy","142792","575192","NA","NA","NA","610785","535742","NA","608851","610454","4592","610785","607350","607348","610453","4592","CogMod 2015 Experiment","10","2765","10","yes","1024"
"2","800","-150","8","100","100","273","273","white","no","xpyriment","legacy","legacy","0","uniform","1","1","z","0","0","0","0","0","130","0","NA","130","130","0","130","130","130","130","0","11/26/15 15:50:03","Default description","no","mono","no","18","black","Ok","768","legacy","C:/Users/Elef/Downloads/subject-2303159.csv","xpyriment","Interactive Ising","3.0.2","0","z","space","NA","z","245","39449","NA","245","legacy","experiment","2303159","odd","legacy","142792","575192","NA","NA","NA","613812","535742","NA","612763","613566","4592","613812","611262","611260","613565","4592","CogMod 2015 Experiment","11","3010","11","yes","1024"
"2","1200","-150","16","100","100","271","271","white","no","xpyriment","legacy","legacy","0","uniform","1","1","z","0","0","0","0","0","131","0","NA","131","131","0","131","131","131","131","0","11/26/15 15:50:03","Default description","no","mono","no","18","black","Ok","768","legacy","C:/Users/Elef/Downloads/subject-2303159.csv","xpyriment","Interactive Ising","3.0.2","0","z","space","NA","z","253","39449","NA","253","legacy","experiment","2303159","odd","legacy","142792","575192","NA","NA","NA","617370","535742","NA","615913","617116","4592","617370","614412","614410","617115","4592","CogMod 2015 Experiment","12","3263","12","yes","1024"
"2","1600","150","32","100","100","268","268","white","no","xpyriment","legacy","legacy","0","uniform","1","1","m","0","0","0","0","0","132","0","NA","132","132","0","132","132","132","132","0","11/26/15 15:50:03","Default description","no","mono","no","18","black","Ok","768","legacy","C:/Users/Elef/Downloads/subject-2303159.csv","xpyriment","Interactive Ising","3.0.2","0","m","space","NA","m","231","39449","NA","231","legacy","experiment","2303159","odd","legacy","142792","575192","NA","NA","NA","621236","535742","NA","619401","621003","4592","621236","617899","617897","621002","4592","CogMod 2015 Experiment","13","3494","13","yes","1024"
"2","800","-150","8","100","100","266","266","white","no","xpyriment","legacy","legacy","0","uniform","1","1","z","0","0","0","0","0","133","0","NA","133","133","0","133","133","133","133","0","11/26/15 15:50:03","Default description","no","mono","no","18","black","Ok","768","legacy","C:/Users/Elef/Downloads/subject-2303159.csv","xpyriment","Interactive Ising","3.0.2","0","z","space","NA","z","241","39449","NA","241","legacy","experiment","2303159","odd","legacy","142792","575192","NA","NA","NA","624244","535742","NA","623199","624002","4592","624245","621698","621697","624001","4592","CogMod 2015 Experiment","14","3735","14","yes","1024"
"2","1600","150","32","100","100","270","270","white","no","xpyriment","legacy","legacy","0","uniform","1","1","m","0","0","0","0","0","134","0","NA","134","134","0","134","134","134","134","0","11/26/15 15:50:03","Default description","no","mono","no","18","black","Ok","768","legacy","C:/Users/Elef/Downloads/subject-2303159.csv","xpyriment","Interactive Ising","3.0.2","0","m","space","NA","m","319","39449","NA","319","legacy","experiment","2303159","odd","legacy","142792","575192","NA","NA","NA","628149","535742","NA","626226","627829","4592","628149","624724","624723","627828","4592","CogMod 2015 Experiment","15","4054","15","yes","1024"
"2","1600","-150","32","100","100","266","266","white","no","xpyriment","legacy","legacy","0","uniform","1","1","z","0","0","0","0","0","135","0","NA","135","135","0","135","135","135","135","0","11/26/15 15:50:03","Default description","no","mono","no","18","black","Ok","768","legacy","C:/Users/Elef/Downloads/subject-2303159.csv","xpyriment","Interactive Ising","3.0.2","0","z","space","NA","z","207","39449","NA","207","legacy","experiment","2303159","odd","legacy","142792","575192","NA","NA","NA","632024","535742","NA","630214","631816","4592","632024","628712","628710","631815","4592","CogMod 2015 Experiment","16","4261","16","yes","1024"
"2","1600","150","32","100","100","265","265","white","no","xpyriment","legacy","legacy","0","uniform","1","1","m","0","0","0","0","0","136","0","NA","136","136","0","136","136","136","136","0","11/26/15 15:50:03","Default description","no","mono","no","18","black","Ok","768","legacy","C:/Users/Elef/Downloads/subject-2303159.csv","xpyriment","Interactive Ising","3.0.2","0","m","space","NA","m","247","39449","NA","247","legacy","experiment","2303159","odd","legacy","142792","575192","NA","NA","NA","635839","535742","NA","633986","635590","4592","635839","632485","632483","635589","4592","CogMod 2015 Experiment","17","4508","17","yes","1024"
"2","1200","-150","16","100","100","263","263","white","no","xpyriment","legacy","legacy","0","uniform","1","1","z","0","0","0","0","0","137","0","NA","137","137","0","137","137","137","137","0","11/26/15 15:50:03","Default description","no","mono","no","18","black","Ok","768","legacy","C:/Users/Elef/Downloads/subject-2303159.csv","xpyriment","Interactive Ising","3.0.2","0","z","space","NA","z","238","39449","NA","238","legacy","experiment","2303159","odd","legacy","142792","575192","NA","NA","NA","639257","535742","NA","637816","639018","4592","639257","636314","636312","639017","4592","CogMod 2015 Experiment","18","4746","18","yes","1024"
"2","1200","150","16","100","100","262","262","white","no","xpyriment","legacy","legacy","0","uniform","1","1","m","0","0","0","0","0","138","0","NA","138","138","0","138","138","138","138","0","11/26/15 15:50:03","Default description","no","mono","no","18","black","Ok","768","legacy","C:/Users/Elef/Downloads/subject-2303159.csv","xpyriment","Interactive Ising","3.0.2","0","m","space","NA","m","233","39449","NA","233","legacy","experiment","2303159","odd","legacy","142792","575192","NA","NA","NA","642674","535742","NA","641236","642440","4592","642675","639735","639733","642439","4592","CogMod 2015 Experiment","19","4979","19","yes","1024"
"2","1200","-150","16","100","100","258","258","white","no","xpyriment","legacy","legacy","0","uniform","1","1","z","0","0","0","0","0","139","0","NA","139","139","0","139","139","139","139","0","11/26/15 15:50:03","Default description","no","mono","no","18","black","Ok","768","legacy","C:/Users/Elef/Downloads/subject-2303159.csv","xpyriment","Interactive Ising","3.0.2","0","z","space","NA","z","192","39449","NA","192","legacy","experiment","2303159","odd","legacy","142792","575192","NA","NA","NA","646050","535742","NA","644654","645857","4592","646050","643153","643152","645856","4592","CogMod 2015 Experiment","20","5171","20","yes","1024"
"2","1600","150","32","100","100","256","256","white","no","xpyriment","legacy","legacy","0","uniform","1","1","m","0","0","0","0","0","140","0","NA","140","140","0","140","140","140","140","0","11/26/15 15:50:03","Default description","no","mono","no","18","black","Ok","768","legacy","C:/Users/Elef/Downloads/subject-2303159.csv","xpyriment","Interactive Ising","3.0.2","0","m","space","NA","m","208","39449","NA","208","legacy","experiment","2303159","odd","legacy","142792","575192","NA","NA","NA","649846","535742","NA","648033","649636","4592","649846","646532","646530","649635","4592","CogMod 2015 Experiment","21","5379","21","yes","1024"
"2","1600","150","32","100","100","260","260","white","no","xpyriment","legacy","legacy","0","uniform","1","1","m","0","0","0","0","0","141","0","NA","141","141","0","141","141","141","141","0","11/26/15 15:50:03","Default description","no","mono","no","18","black","Ok","768","legacy","C:/Users/Elef/Downloads/subject-2303159.csv","xpyriment","Interactive Ising","3.0.2","0","m","space","NA","m","341","39449","NA","341","legacy","experiment","2303159","odd","legacy","142792","575192","NA","NA","NA","653771","535742","NA","651825","653428","4592","653771","650324","650322","653428","4592","CogMod 2015 Experiment","22","5720","22","yes","1024"
"2","400","150","4","100","100","262","262","white","no","xpyriment","legacy","legacy","0","uniform","1","1","m","0","0","0","0","0","142","0","NA","142","142","0","142","142","142","142","0","11/26/15 15:50:03","Default description","no","mono","no","18","black","Ok","768","legacy","C:/Users/Elef/Downloads/subject-2303159.csv","xpyriment","Interactive Ising","3.0.2","0","m","space","NA","m","307","39449","NA","307","legacy","experiment","2303159","odd","legacy","142792","575192","NA","NA","NA","656457","535742","NA","655746","656149","4592","656457","654244","654242","656148","4592","CogMod 2015 Experiment","23","6027","23","yes","1024"
"2","800","-150","8","100","100","263","263","white","no","xpyriment","legacy","legacy","0","uniform","1","1","z","0","0","0","0","0","143","0","NA","143","143","0","143","143","143","143","0","11/26/15 15:50:03","Default description","no","mono","no","18","black","Ok","768","legacy","C:/Users/Elef/Downloads/subject-2303159.csv","xpyriment","Interactive Ising","3.0.2","0","z","space","NA","z","308","39449","NA","308","legacy","experiment","2303159","odd","legacy","142792","575192","NA","NA","NA","659623","535742","NA","658510","659313","4592","659623","657009","657007","659313","4592","CogMod 2015 Experiment","24","6335","24","yes","1024"
"2","400","-150","4","100","100","264","264","white","no","xpyriment","legacy","legacy","0","uniform","1","1","z","0","0","0","0","0","144","0","NA","144","144","0","144","144","144","144","0","11/26/15 15:50:03","Default description","no","mono","no","18","black","Ok","768","legacy","C:/Users/Elef/Downloads/subject-2303159.csv","xpyriment","Interactive Ising","3.0.2","0","z","space","NA","z","289","39449","NA","289","legacy","experiment","2303159","odd","legacy","142792","575192","NA","NA","NA","662291","535742","NA","661599","662001","4592","662291","660097","660096","662000","4592","CogMod 2015 Experiment","25","6624","25","yes","1024"
"2","1200","150","16","100","100","264","264","white","no","xpyriment","legacy","legacy","0","uniform","1","1","m","0","0","0","0","0","145","0","NA","145","145","0","145","145","145","145","0","11/26/15 15:50:03","Default description","no","mono","no","18","black","Ok","768","legacy","C:/Users/Elef/Downloads/subject-2303159.csv","xpyriment","Interactive Ising","3.0.2","0","m","space","NA","m","250","39449","NA","250","legacy","experiment","2303159","odd","legacy","142792","575192","NA","NA","NA","665716","535742","NA","664263","665465","4592","665716","662760","662759","665464","4592","CogMod 2015 Experiment","26","6874","26","yes","1024"
"2","400","-150","4","100","100","264","264","white","no","xpyriment","legacy","legacy","0","uniform","1","1","z","0","0","0","0","0","146","0","NA","146","146","0","146","146","146","146","0","11/26/15 15:50:03","Default description","no","mono","no","18","black","Ok","768","legacy","C:/Users/Elef/Downloads/subject-2303159.csv","xpyriment","Interactive Ising","3.0.2","0","z","space","NA","z","270","39449","NA","270","legacy","experiment","2303159","odd","legacy","142792","575192","NA","NA","NA","668368","535742","NA","667694","668097","4592","668368","666193","666191","668096","4592","CogMod 2015 Experiment","27","7144","27","yes","1024"
"2","1200","-150","16","100","100","264","264","white","no","xpyriment","legacy","legacy","0","uniform","1","1","z","0","0","0","0","0","147","0","NA","147","147","0","147","147","147","147","0","11/26/15 15:50:03","Default description","no","mono","no","18","black","Ok","768","legacy","C:/Users/Elef/Downloads/subject-2303159.csv","xpyriment","Interactive Ising","3.0.2","0","z","space","NA","z","250","39449","NA","250","legacy","experiment","2303159","odd","legacy","142792","575192","NA","NA","NA","671803","535742","NA","670349","671552","4592","671803","668848","668846","671551","4592","CogMod 2015 Experiment","28","7394","28","yes","1024"
"2","1600","150","32","100","100","263","263","white","no","xpyriment","legacy","legacy","0","uniform","1","1","m","0","0","0","0","0","148","0","NA","148","148","0","148","148","148","148","0","11/26/15 15:50:03","Default description","no","mono","no","18","black","Ok","768","legacy","C:/Users/Elef/Downloads/subject-2303159.csv","xpyriment","Interactive Ising","3.0.2","0","m","space","NA","m","243","39449","NA","243","legacy","experiment","2303159","odd","legacy","142792","575192","NA","NA","NA","675686","535742","NA","673838","675441","4592","675686","672337","672335","675440","4592","CogMod 2015 Experiment","29","7637","29","yes","1024"
"2","1200","-150","16","100","100","264","264","white","no","xpyriment","legacy","legacy","0","uniform","1","1","z","0","0","0","0","0","149","0","NA","149","149","0","149","149","149","149","0","11/26/15 15:50:03","Default description","no","mono","no","18","black","Ok","768","legacy","C:/Users/Elef/Downloads/subject-2303159.csv","xpyriment","Interactive Ising","3.0.2","0","z","space","NA","z","291","39449","NA","291","legacy","experiment","2303159","odd","legacy","142792","575192","NA","NA","NA","679149","535742","NA","677655","678857","4592","679149","676153","676151","678857","4592","CogMod 2015 Experiment","30","7928","30","yes","1024"
"2","1200","150","16","100","100","263","263","white","no","xpyriment","legacy","legacy","0","uniform","1","1","m","0","0","0","0","0","150","0","NA","150","150","0","150","150","150","150","0","11/26/15 15:50:03","Default description","no","mono","no","18","black","Ok","768","legacy","C:/Users/Elef/Downloads/subject-2303159.csv","xpyriment","Interactive Ising","3.0.2","0","m","space","NA","m","227","39449","NA","227","legacy","experiment","2303159","odd","legacy","142792","575192","NA","NA","NA","682552","535742","NA","681121","682324","4592","682552","679620","679619","682324","4592","CogMod 2015 Experiment","31","8155","31","yes","1024"
"2","1200","150","16","100","100","265","265","white","no","xpyriment","legacy","legacy","0","uniform","1","1","m","0","0","0","0","0","151","0","NA","151","151","0","151","151","151","151","0","11/26/15 15:50:03","Default description","no","mono","no","18","black","Ok","768","legacy","C:/Users/Elef/Downloads/subject-2303159.csv","xpyriment","Interactive Ising","3.0.2","0","m","space","NA","m","346","39449","NA","346","legacy","experiment","2303159","odd","legacy","142792","575192","NA","NA","NA","686074","535742","NA","684524","685726","4592","686074","683022","683021","685726","4592","CogMod 2015 Experiment","32","8501","32","yes","1024"
"2","1600","150","32","100","100","266","266","white","no","xpyriment","legacy","legacy","0","uniform","1","1","m","0","0","0","0","0","152","0","NA","152","152","0","152","152","152","152","0","11/26/15 15:50:03","Default description","no","mono","no","18","black","Ok","768","legacy","C:/Users/Elef/Downloads/subject-2303159.csv","xpyriment","Interactive Ising","3.0.2","0","m","space","NA","m","298","39449","NA","298","legacy","experiment","2303159","odd","legacy","142792","575192","NA","NA","NA","689950","535742","NA","688048","689650","4592","689950","686546","686543","689649","4592","CogMod 2015 Experiment","33","8799","33","yes","1024"
