"Block","Foreperiod","Location","NumRep","acc","accuracy","average_response_time","avg_rt","background","bidi","canvas_backend","clock_backend","color_backend","compensation","coordinates","correct","correct_GetResponse","correct_response","count_Block_1","count_Block_2","count_Block_3","count_Block_4","count_Block_5","count_ClearScreen","count_Feedback","count_Feedback_Final","count_Fixation","count_GetResponse","count_Instructions1","count_LogData","count_PreTrialWait","count_SingleTrial","count_Stimulus","count_experiment","datetime","description","font_bold","font_family","font_italic","font_size","foreground","form_response","height","keyboard_backend","logfile","mouse_backend","opensesame_codename","opensesame_version","repeat_cycle","response","response_Feedback","response_Feedback_Final","response_GetResponse","response_time","response_time_Feedback","response_time_Feedback_Final","response_time_GetResponse","sampler_backend","start","subject_nr","subject_parity","synth_backend","time_Block_1","time_Block_2","time_Block_3","time_Block_4","time_Block_5","time_ClearScreen","time_Feedback","time_Feedback_Final","time_Fixation","time_GetResponse","time_Instructions1","time_LogData","time_PreTrialWait","time_SingleTrial","time_Stimulus","time_experiment","title","total_correct","total_response_time","total_responses","uniform_coordinates","width"
"1","1200","150","15","0","0","2000","2000","white","no","xpyriment","legacy","legacy","0","uniform","0","0","m","0","0","0","0","0","0","NA","NA","0","0","0","0","0","0","0","0","11/28/15 14:15:18","Default description","no","mono","no","18","black","Ok","768","legacy","W:/school/cognetive-modeling/simulationdata/subject-2423529.csv","xpyriment","Interactive Ising","3.0.3","0","None","NA","NA","None","2000","NA","NA","2000","legacy","experiment","2423529","odd","legacy","59231","NA","NA","NA","NA","65743","NA","NA","62388","63589","1605","65743","60317","60316","63589","1605","CogMod 2015 Experiment","0","2000","1","yes","1024"
"1","1200","150","15","50","50","1193","1193","white","no","xpyriment","legacy","legacy","0","uniform","1","1","m","0","0","0","0","0","1","NA","NA","1","1","0","1","1","1","1","0","11/28/15 14:15:18","Default description","no","mono","no","18","black","Ok","768","legacy","W:/school/cognetive-modeling/simulationdata/subject-2423529.csv","xpyriment","Interactive Ising","3.0.3","0","m","NA","NA","m","386","NA","NA","386","legacy","experiment","2423529","odd","legacy","59231","NA","NA","NA","NA","69956","NA","NA","68369","69569","1605","69956","66869","66868","69569","1605","CogMod 2015 Experiment","1","2386","2","yes","1024"
"1","800","150","15","66.6666666667","66.6666666667","924","924","white","no","xpyriment","legacy","legacy","0","uniform","1","1","m","0","0","0","0","0","2","NA","NA","2","2","0","2","2","2","2","0","11/28/15 14:15:18","Default description","no","mono","no","18","black","Ok","768","legacy","W:/school/cognetive-modeling/simulationdata/subject-2423529.csv","xpyriment","Interactive Ising","3.0.3","0","m","NA","NA","m","388","NA","NA","388","legacy","experiment","2423529","odd","legacy","59231","NA","NA","NA","NA","73832","NA","NA","72643","73443","1605","73832","71143","71142","73443","1605","CogMod 2015 Experiment","2","2774","3","yes","1024"
"1","1600","-150","15","75","75","758","758","white","no","xpyriment","legacy","legacy","0","uniform","1","1","z","0","0","0","0","0","3","NA","NA","3","3","0","3","3","3","3","0","11/28/15 14:15:18","Default description","no","mono","no","18","black","Ok","768","legacy","W:/school/cognetive-modeling/simulationdata/subject-2423529.csv","xpyriment","Interactive Ising","3.0.3","0","z","NA","NA","z","261","NA","NA","261","legacy","experiment","2423529","odd","legacy","59231","NA","NA","NA","NA","78359","NA","NA","76497","78097","1605","78359","74997","74997","78097","1605","CogMod 2015 Experiment","3","3035","4","yes","1024"
"1","1200","-150","15","80","80","676","676","white","no","xpyriment","legacy","legacy","0","uniform","1","1","z","0","0","0","0","0","4","NA","NA","4","4","0","4","4","4","4","0","11/28/15 14:15:18","Default description","no","mono","no","18","black","Ok","768","legacy","W:/school/cognetive-modeling/simulationdata/subject-2423529.csv","xpyriment","Interactive Ising","3.0.3","0","z","NA","NA","z","345","NA","NA","345","legacy","experiment","2423529","odd","legacy","59231","NA","NA","NA","NA","82555","NA","NA","81009","82209","1605","82555","79509","79508","82209","1605","CogMod 2015 Experiment","4","3380","5","yes","1024"
"1","1600","-150","15","83.3333333333","83.3333333333","609","609","white","no","xpyriment","legacy","legacy","0","uniform","1","1","z","0","0","0","0","0","5","NA","NA","5","5","0","5","5","5","5","0","11/28/15 14:15:18","Default description","no","mono","no","18","black","Ok","768","legacy","W:/school/cognetive-modeling/simulationdata/subject-2423529.csv","xpyriment","Interactive Ising","3.0.3","0","z","NA","NA","z","277","NA","NA","277","legacy","experiment","2423529","odd","legacy","59231","NA","NA","NA","NA","87065","NA","NA","85187","86787","1605","87066","83687","83687","86787","1605","CogMod 2015 Experiment","5","3657","6","yes","1024"
"1","800","150","15","85.7142857143","85.7142857143","564","564","white","no","xpyriment","legacy","legacy","0","uniform","1","1","m","0","0","0","0","0","6","NA","NA","6","6","0","6","6","6","6","0","11/28/15 14:15:18","Default description","no","mono","no","18","black","Ok","768","legacy","W:/school/cognetive-modeling/simulationdata/subject-2423529.csv","xpyriment","Interactive Ising","3.0.3","0","m","NA","NA","m","293","NA","NA","293","legacy","experiment","2423529","odd","legacy","59231","NA","NA","NA","NA","90833","NA","NA","89739","90539","1605","90833","88239","88238","90539","1605","CogMod 2015 Experiment","6","3950","7","yes","1024"
"1","400","150","15","87.5","87.5","534","534","white","no","xpyriment","legacy","legacy","0","uniform","1","1","m","0","0","0","0","0","7","NA","NA","7","7","0","7","7","7","7","0","11/28/15 14:15:18","Default description","no","mono","no","18","black","Ok","768","legacy","W:/school/cognetive-modeling/simulationdata/subject-2423529.csv","xpyriment","Interactive Ising","3.0.3","0","m","NA","NA","m","328","NA","NA","328","legacy","experiment","2423529","odd","legacy","59231","NA","NA","NA","NA","94109","NA","NA","93380","93780","1605","94109","91880","91880","93780","1605","CogMod 2015 Experiment","7","4278","8","yes","1024"
"1","1600","150","15","88.8888888889","88.8888888889","505","505","white","no","xpyriment","legacy","legacy","0","uniform","1","1","m","0","0","0","0","0","8","NA","NA","8","8","0","8","8","8","8","0","11/28/15 14:15:18","Default description","no","mono","no","18","black","Ok","768","legacy","W:/school/cognetive-modeling/simulationdata/subject-2423529.csv","xpyriment","Interactive Ising","3.0.3","0","m","NA","NA","m","271","NA","NA","271","legacy","experiment","2423529","odd","legacy","59231","NA","NA","NA","NA","98626","NA","NA","96754","98354","1605","98626","95253","95253","98354","1605","CogMod 2015 Experiment","8","4549","9","yes","1024"
"1","400","150","15","90","90","488","488","white","no","xpyriment","legacy","legacy","0","uniform","1","1","m","0","0","0","0","0","9","NA","NA","9","9","0","9","9","9","9","0","11/28/15 14:15:18","Default description","no","mono","no","18","black","Ok","768","legacy","W:/school/cognetive-modeling/simulationdata/subject-2423529.csv","xpyriment","Interactive Ising","3.0.3","0","m","NA","NA","m","332","NA","NA","332","legacy","experiment","2423529","odd","legacy","59231","NA","NA","NA","NA","102007","NA","NA","101274","101674","1605","102007","99774","99773","101674","1605","CogMod 2015 Experiment","9","4881","10","yes","1024"
"1","1600","-150","15","90.9090909091","90.9090909091","467","467","white","no","xpyriment","legacy","legacy","0","uniform","1","1","z","0","0","0","0","0","10","NA","NA","10","10","0","10","10","10","10","0","11/28/15 14:15:18","Default description","no","mono","no","18","black","Ok","768","legacy","W:/school/cognetive-modeling/simulationdata/subject-2423529.csv","xpyriment","Interactive Ising","3.0.3","0","z","NA","NA","z","264","NA","NA","264","legacy","experiment","2423529","odd","legacy","59231","NA","NA","NA","NA","106626","NA","NA","104761","106361","1605","106626","103260","103259","106361","1605","CogMod 2015 Experiment","10","5145","11","yes","1024"
"1","800","150","15","91.6666666667","91.6666666667","458","458","white","no","xpyriment","legacy","legacy","0","uniform","1","1","m","0","0","0","0","0","11","NA","NA","11","11","0","11","11","11","11","0","11/28/15 14:15:18","Default description","no","mono","no","18","black","Ok","768","legacy","W:/school/cognetive-modeling/simulationdata/subject-2423529.csv","xpyriment","Interactive Ising","3.0.3","0","m","NA","NA","m","356","NA","NA","356","legacy","experiment","2423529","odd","legacy","59231","NA","NA","NA","NA","110553","NA","NA","109396","110196","1605","110553","107896","107896","110196","1605","CogMod 2015 Experiment","11","5501","12","yes","1024"
"1","1600","-150","15","92.3076923077","92.3076923077","442","442","white","no","xpyriment","legacy","legacy","0","uniform","1","1","z","0","0","0","0","0","12","NA","NA","12","12","0","12","12","12","12","0","11/28/15 14:15:18","Default description","no","mono","no","18","black","Ok","768","legacy","W:/school/cognetive-modeling/simulationdata/subject-2423529.csv","xpyriment","Interactive Ising","3.0.3","0","z","NA","NA","z","256","NA","NA","256","legacy","experiment","2423529","odd","legacy","59231","NA","NA","NA","NA","115065","NA","NA","113208","114808","1605","115065","111708","111707","114808","1605","CogMod 2015 Experiment","12","5757","13","yes","1024"
"1","1200","150","15","92.8571428571","92.8571428571","430","430","white","no","xpyriment","legacy","legacy","0","uniform","1","1","m","0","0","0","0","0","13","NA","NA","13","13","0","13","13","13","13","0","11/28/15 14:15:18","Default description","no","mono","no","18","black","Ok","768","legacy","W:/school/cognetive-modeling/simulationdata/subject-2423529.csv","xpyriment","Interactive Ising","3.0.3","0","m","NA","NA","m","270","NA","NA","270","legacy","experiment","2423529","odd","legacy","59231","NA","NA","NA","NA","119289","NA","NA","117818","119018","1605","119290","116318","116318","119018","1605","CogMod 2015 Experiment","13","6027","14","yes","1024"
"1","1600","-150","15","93.3333333333","93.3333333333","418","418","white","no","xpyriment","legacy","legacy","0","uniform","1","1","z","0","0","0","0","0","14","NA","NA","14","14","0","14","14","14","14","0","11/28/15 14:15:18","Default description","no","mono","no","18","black","Ok","768","legacy","W:/school/cognetive-modeling/simulationdata/subject-2423529.csv","xpyriment","Interactive Ising","3.0.3","0","z","NA","NA","z","251","NA","NA","251","legacy","experiment","2423529","odd","legacy","59231","NA","NA","NA","NA","123847","NA","NA","121995","123595","1605","123848","120494","120494","123595","1605","CogMod 2015 Experiment","14","6278","15","yes","1024"
"1","400","150","15","93.75","93.75","413","413","white","no","xpyriment","legacy","legacy","0","uniform","1","1","m","0","0","0","0","0","15","NA","NA","15","15","0","15","15","15","15","0","11/28/15 14:15:18","Default description","no","mono","no","18","black","Ok","768","legacy","W:/school/cognetive-modeling/simulationdata/subject-2423529.csv","xpyriment","Interactive Ising","3.0.3","0","m","NA","NA","m","331","NA","NA","331","legacy","experiment","2423529","odd","legacy","59231","NA","NA","NA","NA","127401","NA","NA","126630","127030","1605","127401","125130","125130","127030","1605","CogMod 2015 Experiment","15","6609","16","yes","1024"
"1","1200","-150","15","94.1176470588","94.1176470588","402","402","white","no","xpyriment","legacy","legacy","0","uniform","1","1","z","0","0","0","0","0","16","NA","NA","16","16","0","16","16","16","16","0","11/28/15 14:15:18","Default description","no","mono","no","18","black","Ok","768","legacy","W:/school/cognetive-modeling/simulationdata/subject-2423529.csv","xpyriment","Interactive Ising","3.0.3","0","z","NA","NA","z","232","NA","NA","232","legacy","experiment","2423529","odd","legacy","59231","NA","NA","NA","NA","131350","NA","NA","129917","131117","1605","131350","128416","128416","131117","1605","CogMod 2015 Experiment","16","6841","17","yes","1024"
"1","400","-150","15","94.4444444444","94.4444444444","403","403","white","no","xpyriment","legacy","legacy","0","uniform","1","1","z","0","0","0","0","0","17","NA","NA","17","17","0","17","17","17","17","0","11/28/15 14:15:18","Default description","no","mono","no","18","black","Ok","768","legacy","W:/school/cognetive-modeling/simulationdata/subject-2423529.csv","xpyriment","Interactive Ising","3.0.3","0","z","NA","NA","z","418","NA","NA","418","legacy","experiment","2423529","odd","legacy","59231","NA","NA","NA","NA","134702","NA","NA","133883","134283","1605","134702","132383","132382","134283","1605","CogMod 2015 Experiment","17","7259","18","yes","1024"
"1","1200","-150","15","94.7368421053","94.7368421053","398","398","white","no","xpyriment","legacy","legacy","0","uniform","1","1","z","0","0","0","0","0","18","NA","NA","18","18","0","18","18","18","18","0","11/28/15 14:15:18","Default description","no","mono","no","18","black","Ok","768","legacy","W:/school/cognetive-modeling/simulationdata/subject-2423529.csv","xpyriment","Interactive Ising","3.0.3","0","z","NA","NA","z","321","NA","NA","321","legacy","experiment","2423529","odd","legacy","59231","NA","NA","NA","NA","138856","NA","NA","137334","138534","1605","138856","135834","135833","138534","1605","CogMod 2015 Experiment","18","7580","19","yes","1024"
"1","1200","150","15","95","95","395","395","white","no","xpyriment","legacy","legacy","0","uniform","1","1","m","0","0","0","0","0","19","NA","NA","19","19","0","19","19","19","19","0","11/28/15 14:15:18","Default description","no","mono","no","18","black","Ok","768","legacy","W:/school/cognetive-modeling/simulationdata/subject-2423529.csv","xpyriment","Interactive Ising","3.0.3","0","m","NA","NA","m","323","NA","NA","323","legacy","experiment","2423529","odd","legacy","59231","NA","NA","NA","NA","143022","NA","NA","141498","142698","1605","143022","139998","139997","142698","1605","CogMod 2015 Experiment","19","7903","20","yes","1024"
"1","1200","150","15","95.2380952381","95.2380952381","392","392","white","no","xpyriment","legacy","legacy","0","uniform","1","1","m","0","0","0","0","0","20","NA","NA","20","20","0","20","20","20","20","0","11/28/15 14:15:18","Default description","no","mono","no","18","black","Ok","768","legacy","W:/school/cognetive-modeling/simulationdata/subject-2423529.csv","xpyriment","Interactive Ising","3.0.3","0","m","NA","NA","m","332","NA","NA","332","legacy","experiment","2423529","odd","legacy","59231","NA","NA","NA","NA","147186","NA","NA","145653","146853","1605","147186","144153","144152","146853","1605","CogMod 2015 Experiment","20","8235","21","yes","1024"
"1","400","150","15","95.4545454545","95.4545454545","388","388","white","no","xpyriment","legacy","legacy","0","uniform","1","1","m","0","0","0","0","0","21","NA","NA","21","21","0","21","21","21","21","0","11/28/15 14:15:18","Default description","no","mono","no","18","black","Ok","768","legacy","W:/school/cognetive-modeling/simulationdata/subject-2423529.csv","xpyriment","Interactive Ising","3.0.3","0","m","NA","NA","m","322","NA","NA","322","legacy","experiment","2423529","odd","legacy","59231","NA","NA","NA","NA","150594","NA","NA","149870","150270","1605","150594","148370","148370","150270","1605","CogMod 2015 Experiment","21","8557","22","yes","1024"
"1","1200","150","15","95.652173913","95.652173913","384","384","white","no","xpyriment","legacy","legacy","0","uniform","1","1","m","0","0","0","0","0","22","NA","NA","22","22","0","22","22","22","22","0","11/28/15 14:15:18","Default description","no","mono","no","18","black","Ok","768","legacy","W:/school/cognetive-modeling/simulationdata/subject-2423529.csv","xpyriment","Interactive Ising","3.0.3","0","m","NA","NA","m","293","NA","NA","293","legacy","experiment","2423529","odd","legacy","59231","NA","NA","NA","NA","154710","NA","NA","153216","154416","1605","154710","151715","151715","154416","1605","CogMod 2015 Experiment","22","8850","23","yes","1024"
"1","400","-150","15","95.8333333333","95.8333333333","380","380","white","no","xpyriment","legacy","legacy","0","uniform","1","1","z","0","0","0","0","0","23","NA","NA","23","23","0","23","23","23","23","0","11/28/15 14:15:18","Default description","no","mono","no","18","black","Ok","768","legacy","W:/school/cognetive-modeling/simulationdata/subject-2423529.csv","xpyriment","Interactive Ising","3.0.3","0","z","NA","NA","z","276","NA","NA","276","legacy","experiment","2423529","odd","legacy","59231","NA","NA","NA","NA","158056","NA","NA","157379","157779","1605","158056","155879","155878","157779","1605","CogMod 2015 Experiment","23","9126","24","yes","1024"
"1","400","-150","15","96","96","377","377","white","no","xpyriment","legacy","legacy","0","uniform","1","1","z","0","0","0","0","0","24","NA","NA","24","24","0","24","24","24","24","0","11/28/15 14:15:18","Default description","no","mono","no","18","black","Ok","768","legacy","W:/school/cognetive-modeling/simulationdata/subject-2423529.csv","xpyriment","Interactive Ising","3.0.3","0","z","NA","NA","z","302","NA","NA","302","legacy","experiment","2423529","odd","legacy","59231","NA","NA","NA","NA","161345","NA","NA","160642","161042","1605","161345","159142","159141","161042","1605","CogMod 2015 Experiment","24","9428","25","yes","1024"
"1","800","150","15","96.1538461538","96.1538461538","374","374","white","no","xpyriment","legacy","legacy","0","uniform","1","1","m","0","0","0","0","0","25","NA","NA","25","25","0","25","25","25","25","0","11/28/15 14:15:18","Default description","no","mono","no","18","black","Ok","768","legacy","W:/school/cognetive-modeling/simulationdata/subject-2423529.csv","xpyriment","Interactive Ising","3.0.3","0","m","NA","NA","m","296","NA","NA","296","legacy","experiment","2423529","odd","legacy","59231","NA","NA","NA","NA","165107","NA","NA","164010","164810","1605","165107","162510","162509","164810","1605","CogMod 2015 Experiment","25","9724","26","yes","1024"
"1","800","150","15","96.2962962963","96.2962962963","372","372","white","no","xpyriment","legacy","legacy","0","uniform","1","1","m","0","0","0","0","0","26","NA","NA","26","26","0","26","26","26","26","0","11/28/15 14:15:18","Default description","no","mono","no","18","black","Ok","768","legacy","W:/school/cognetive-modeling/simulationdata/subject-2423529.csv","xpyriment","Interactive Ising","3.0.3","0","m","NA","NA","m","335","NA","NA","335","legacy","experiment","2423529","odd","legacy","59231","NA","NA","NA","NA","168848","NA","NA","167712","168512","1605","168848","166212","166211","168512","1605","CogMod 2015 Experiment","26","10059","27","yes","1024"
"1","1600","-150","15","96.4285714286","96.4285714286","368","368","white","no","xpyriment","legacy","legacy","0","uniform","1","1","z","0","0","0","0","0","27","NA","NA","27","27","0","27","27","27","27","0","11/28/15 14:15:18","Default description","no","mono","no","18","black","Ok","768","legacy","W:/school/cognetive-modeling/simulationdata/subject-2423529.csv","xpyriment","Interactive Ising","3.0.3","0","z","NA","NA","z","250","NA","NA","250","legacy","experiment","2423529","odd","legacy","59231","NA","NA","NA","NA","173362","NA","NA","171511","173111","1605","173362","170009","170007","173111","1605","CogMod 2015 Experiment","27","10309","28","yes","1024"
"1","1200","150","15","96.5517241379","96.5517241379","369","369","white","no","xpyriment","legacy","legacy","0","uniform","1","1","m","0","0","0","0","0","28","NA","NA","28","28","0","28","28","28","28","0","11/28/15 14:15:18","Default description","no","mono","no","18","black","Ok","768","legacy","W:/school/cognetive-modeling/simulationdata/subject-2423529.csv","xpyriment","Interactive Ising","3.0.3","0","m","NA","NA","m","393","NA","NA","393","legacy","experiment","2423529","odd","legacy","59231","NA","NA","NA","NA","177611","NA","NA","176017","177217","1605","177612","174517","174516","177217","1605","CogMod 2015 Experiment","28","10702","29","yes","1024"
"1","1600","-150","15","96.6666666667","96.6666666667","366","366","white","no","xpyriment","legacy","legacy","0","uniform","1","1","z","0","0","0","0","0","29","NA","NA","29","29","0","29","29","29","29","0","11/28/15 14:15:18","Default description","no","mono","no","18","black","Ok","768","legacy","W:/school/cognetive-modeling/simulationdata/subject-2423529.csv","xpyriment","Interactive Ising","3.0.3","0","z","NA","NA","z","280","NA","NA","280","legacy","experiment","2423529","odd","legacy","59231","NA","NA","NA","NA","182090","NA","NA","180209","181809","1605","182090","178709","178708","181809","1605","CogMod 2015 Experiment","29","10982","30","yes","1024"
"1","800","-150","15","96.7741935484","96.7741935484","364","364","white","no","xpyriment","legacy","legacy","0","uniform","1","1","z","0","0","0","0","0","30","NA","NA","30","30","0","30","30","30","30","0","11/28/15 14:15:18","Default description","no","mono","no","18","black","Ok","768","legacy","W:/school/cognetive-modeling/simulationdata/subject-2423529.csv","xpyriment","Interactive Ising","3.0.3","0","z","NA","NA","z","326","NA","NA","326","legacy","experiment","2423529","odd","legacy","59231","NA","NA","NA","NA","185767","NA","NA","184640","185440","1605","185767","183140","183139","185440","1605","CogMod 2015 Experiment","30","11308","31","yes","1024"
"1","800","150","15","96.875","96.875","362","362","white","no","xpyriment","legacy","legacy","0","uniform","1","1","m","0","0","0","0","0","31","NA","NA","31","31","0","31","31","31","31","0","11/28/15 14:15:18","Default description","no","mono","no","18","black","Ok","768","legacy","W:/school/cognetive-modeling/simulationdata/subject-2423529.csv","xpyriment","Interactive Ising","3.0.3","0","m","NA","NA","m","294","NA","NA","294","legacy","experiment","2423529","odd","legacy","59231","NA","NA","NA","NA","189464","NA","NA","188369","189169","1605","189464","186869","186868","189169","1605","CogMod 2015 Experiment","31","11602","32","yes","1024"
"1","400","-150","15","96.9696969697","96.9696969697","375","375","white","no","xpyriment","legacy","legacy","0","uniform","1","1","z","0","0","0","0","0","32","NA","NA","32","32","0","32","32","32","32","0","11/28/15 14:15:18","Default description","no","mono","no","18","black","Ok","768","legacy","W:/school/cognetive-modeling/simulationdata/subject-2423529.csv","xpyriment","Interactive Ising","3.0.3","0","z","NA","NA","z","781","NA","NA","781","legacy","experiment","2423529","odd","legacy","59231","NA","NA","NA","NA","193226","NA","NA","192044","192444","1605","193226","190543","190543","192444","1605","CogMod 2015 Experiment","32","12383","33","yes","1024"
"1","800","-150","15","97.0588235294","97.0588235294","376","376","white","no","xpyriment","legacy","legacy","0","uniform","1","1","z","0","0","0","0","0","33","NA","NA","33","33","0","33","33","33","33","0","11/28/15 14:15:18","Default description","no","mono","no","18","black","Ok","768","legacy","W:/school/cognetive-modeling/simulationdata/subject-2423529.csv","xpyriment","Interactive Ising","3.0.3","0","z","NA","NA","z","404","NA","NA","404","legacy","experiment","2423529","odd","legacy","59231","NA","NA","NA","NA","197159","NA","NA","195954","196754","1605","197159","194454","194454","196754","1605","CogMod 2015 Experiment","33","12787","34","yes","1024"
"1","1200","150","15","97.1428571429","97.1428571429","374","374","white","no","xpyriment","legacy","legacy","0","uniform","1","1","m","0","0","0","0","0","34","NA","NA","34","34","0","34","34","34","34","0","11/28/15 14:15:18","Default description","no","mono","no","18","black","Ok","768","legacy","W:/school/cognetive-modeling/simulationdata/subject-2423529.csv","xpyriment","Interactive Ising","3.0.3","0","m","NA","NA","m","311","NA","NA","311","legacy","experiment","2423529","odd","legacy","59231","NA","NA","NA","NA","201388","NA","NA","199876","201076","1605","201388","198375","198375","201076","1605","CogMod 2015 Experiment","34","13098","35","yes","1024"
"1","800","-150","15","97.2222222222","97.2222222222","372","372","white","no","xpyriment","legacy","legacy","0","uniform","1","1","z","0","0","0","0","0","35","NA","NA","35","35","0","35","35","35","35","0","11/28/15 14:15:18","Default description","no","mono","no","18","black","Ok","768","legacy","W:/school/cognetive-modeling/simulationdata/subject-2423529.csv","xpyriment","Interactive Ising","3.0.3","0","z","NA","NA","z","305","NA","NA","305","legacy","experiment","2423529","odd","legacy","59231","NA","NA","NA","NA","205173","NA","NA","204067","204867","1605","205173","202567","202567","204867","1605","CogMod 2015 Experiment","35","13403","36","yes","1024"
"1","800","150","15","97.2972972973","97.2972972973","370","370","white","no","xpyriment","legacy","legacy","0","uniform","1","1","m","0","0","0","0","0","36","NA","NA","36","36","0","36","36","36","36","0","11/28/15 14:15:18","Default description","no","mono","no","18","black","Ok","768","legacy","W:/school/cognetive-modeling/simulationdata/subject-2423529.csv","xpyriment","Interactive Ising","3.0.3","0","m","NA","NA","m","298","NA","NA","298","legacy","experiment","2423529","odd","legacy","59231","NA","NA","NA","NA","209116","NA","NA","208017","208817","1605","209117","206517","206517","208817","1605","CogMod 2015 Experiment","36","13701","37","yes","1024"
"1","400","-150","15","97.3684210526","97.3684210526","368","368","white","no","xpyriment","legacy","legacy","0","uniform","1","1","z","0","0","0","0","0","37","NA","NA","37","37","0","37","37","37","37","0","11/28/15 14:15:18","Default description","no","mono","no","18","black","Ok","768","legacy","W:/school/cognetive-modeling/simulationdata/subject-2423529.csv","xpyriment","Interactive Ising","3.0.3","0","z","NA","NA","z","310","NA","NA","310","legacy","experiment","2423529","odd","legacy","59231","NA","NA","NA","NA","212570","NA","NA","211859","212259","1605","212570","210359","210358","212259","1605","CogMod 2015 Experiment","37","14011","38","yes","1024"
"1","1600","-150","15","97.4358974359","97.4358974359","366","366","white","no","xpyriment","legacy","legacy","0","uniform","1","1","z","0","0","0","0","0","38","NA","NA","38","38","0","38","38","38","38","0","11/28/15 14:15:18","Default description","no","mono","no","18","black","Ok","768","legacy","W:/school/cognetive-modeling/simulationdata/subject-2423529.csv","xpyriment","Interactive Ising","3.0.3","0","z","NA","NA","z","275","NA","NA","275","legacy","experiment","2423529","odd","legacy","59231","NA","NA","NA","NA","217261","NA","NA","215385","216985","1605","217261","213885","213884","216985","1605","CogMod 2015 Experiment","38","14286","39","yes","1024"
"1","400","-150","15","97.5","97.5","365","365","white","no","xpyriment","legacy","legacy","0","uniform","1","1","z","0","0","0","0","0","39","NA","NA","39","39","0","39","39","39","39","0","11/28/15 14:15:18","Default description","no","mono","no","18","black","Ok","768","legacy","W:/school/cognetive-modeling/simulationdata/subject-2423529.csv","xpyriment","Interactive Ising","3.0.3","0","z","NA","NA","z","321","NA","NA","321","legacy","experiment","2423529","odd","legacy","59231","NA","NA","NA","NA","220445","NA","NA","219723","220123","1605","220445","218223","218223","220123","1605","CogMod 2015 Experiment","39","14607","40","yes","1024"
"1","400","150","15","97.5609756098","97.5609756098","364","364","white","no","xpyriment","legacy","legacy","0","uniform","1","1","m","0","0","0","0","0","40","NA","NA","40","40","0","40","40","40","40","0","11/28/15 14:15:18","Default description","no","mono","no","18","black","Ok","768","legacy","W:/school/cognetive-modeling/simulationdata/subject-2423529.csv","xpyriment","Interactive Ising","3.0.3","0","m","NA","NA","m","326","NA","NA","326","legacy","experiment","2423529","odd","legacy","59231","NA","NA","NA","NA","223735","NA","NA","223008","223408","1605","223735","221507","221507","223408","1605","CogMod 2015 Experiment","40","14933","41","yes","1024"
"1","1200","-150","15","97.619047619","97.619047619","361","361","white","no","xpyriment","legacy","legacy","0","uniform","1","1","z","0","0","0","0","0","41","NA","NA","41","41","0","41","41","41","41","0","11/28/15 14:15:18","Default description","no","mono","no","18","black","Ok","768","legacy","W:/school/cognetive-modeling/simulationdata/subject-2423529.csv","xpyriment","Interactive Ising","3.0.3","0","z","NA","NA","z","251","NA","NA","251","legacy","experiment","2423529","odd","legacy","59231","NA","NA","NA","NA","227791","NA","NA","226339","227539","1605","227791","224839","224839","227539","1605","CogMod 2015 Experiment","41","15184","42","yes","1024"
"1","1600","-150","15","97.6744186047","97.6744186047","360","360","white","no","xpyriment","legacy","legacy","0","uniform","1","1","z","0","0","0","0","0","42","NA","NA","42","42","0","42","42","42","42","0","11/28/15 14:15:18","Default description","no","mono","no","18","black","Ok","768","legacy","W:/school/cognetive-modeling/simulationdata/subject-2423529.csv","xpyriment","Interactive Ising","3.0.3","0","z","NA","NA","z","303","NA","NA","303","legacy","experiment","2423529","odd","legacy","59231","NA","NA","NA","NA","232362","NA","NA","230458","232058","1605","232363","228957","228957","232058","1605","CogMod 2015 Experiment","42","15487","43","yes","1024"
"1","800","-150","15","97.7272727273","97.7272727273","359","359","white","no","xpyriment","legacy","legacy","0","uniform","1","1","z","0","0","0","0","0","43","NA","NA","43","43","0","43","43","43","43","0","11/28/15 14:15:18","Default description","no","mono","no","18","black","Ok","768","legacy","W:/school/cognetive-modeling/simulationdata/subject-2423529.csv","xpyriment","Interactive Ising","3.0.3","0","z","NA","NA","z","316","NA","NA","316","legacy","experiment","2423529","odd","legacy","59231","NA","NA","NA","NA","236074","NA","NA","234957","235757","1605","236075","233457","233457","235757","1605","CogMod 2015 Experiment","43","15803","44","yes","1024"
"1","1600","-150","15","97.7777777778","97.7777777778","358","358","white","no","xpyriment","legacy","legacy","0","uniform","1","1","z","0","0","0","0","0","44","NA","NA","44","44","0","44","44","44","44","0","11/28/15 14:15:18","Default description","no","mono","no","18","black","Ok","768","legacy","W:/school/cognetive-modeling/simulationdata/subject-2423529.csv","xpyriment","Interactive Ising","3.0.3","0","z","NA","NA","z","336","NA","NA","336","legacy","experiment","2423529","odd","legacy","59231","NA","NA","NA","NA","240665","NA","NA","238728","240328","1605","240665","237228","237227","240328","1605","CogMod 2015 Experiment","44","16139","45","yes","1024"
"1","400","-150","15","97.8260869565","97.8260869565","358","358","white","no","xpyriment","legacy","legacy","0","uniform","1","1","z","0","0","0","0","0","45","NA","NA","45","45","0","45","45","45","45","0","11/28/15 14:15:18","Default description","no","mono","no","18","black","Ok","768","legacy","W:/school/cognetive-modeling/simulationdata/subject-2423529.csv","xpyriment","Interactive Ising","3.0.3","0","z","NA","NA","z","344","NA","NA","344","legacy","experiment","2423529","odd","legacy","59231","NA","NA","NA","NA","244021","NA","NA","243276","243676","1605","244021","241776","241776","243676","1605","CogMod 2015 Experiment","45","16483","46","yes","1024"
"1","1600","-150","15","97.8723404255","97.8723404255","356","356","white","no","xpyriment","legacy","legacy","0","uniform","1","1","z","0","0","0","0","0","46","NA","NA","46","46","0","46","46","46","46","0","11/28/15 14:15:18","Default description","no","mono","no","18","black","Ok","768","legacy","W:/school/cognetive-modeling/simulationdata/subject-2423529.csv","xpyriment","Interactive Ising","3.0.3","0","z","NA","NA","z","293","NA","NA","293","legacy","experiment","2423529","odd","legacy","59231","NA","NA","NA","NA","248564","NA","NA","246670","248270","1605","248564","245170","245170","248270","1605","CogMod 2015 Experiment","46","16776","47","yes","1024"
"1","1600","150","15","97.9166666667","97.9166666667","357","357","white","no","xpyriment","legacy","legacy","0","uniform","1","1","m","0","0","0","0","0","47","NA","NA","47","47","0","47","47","47","47","0","11/28/15 14:15:18","Default description","no","mono","no","18","black","Ok","768","legacy","W:/school/cognetive-modeling/simulationdata/subject-2423529.csv","xpyriment","Interactive Ising","3.0.3","0","m","NA","NA","m","407","NA","NA","407","legacy","experiment","2423529","odd","legacy","59231","NA","NA","NA","NA","253199","NA","NA","251191","252791","1605","253199","249691","249690","252791","1605","CogMod 2015 Experiment","47","17183","48","yes","1024"
"1","1200","-150","15","97.9591836735","97.9591836735","356","356","white","no","xpyriment","legacy","legacy","0","uniform","1","1","z","0","0","0","0","0","48","NA","NA","48","48","0","48","48","48","48","0","11/28/15 14:15:18","Default description","no","mono","no","18","black","Ok","768","legacy","W:/school/cognetive-modeling/simulationdata/subject-2423529.csv","xpyriment","Interactive Ising","3.0.3","0","z","NA","NA","z","308","NA","NA","308","legacy","experiment","2423529","odd","legacy","59231","NA","NA","NA","NA","257381","NA","NA","255872","257072","1605","257381","254372","254371","257072","1605","CogMod 2015 Experiment","48","17491","49","yes","1024"
"1","1200","-150","15","98","98","356","356","white","no","xpyriment","legacy","legacy","0","uniform","1","1","z","0","0","0","0","0","49","NA","NA","49","49","0","49","49","49","49","0","11/28/15 14:15:18","Default description","no","mono","no","18","black","Ok","768","legacy","W:/school/cognetive-modeling/simulationdata/subject-2423529.csv","xpyriment","Interactive Ising","3.0.3","0","z","NA","NA","z","336","NA","NA","336","legacy","experiment","2423529","odd","legacy","59231","NA","NA","NA","NA","261573","NA","NA","260036","261236","1605","261573","258536","258536","261236","1605","CogMod 2015 Experiment","49","17827","50","yes","1024"
"1","800","150","15","98.0392156863","98.0392156863","355","355","white","no","xpyriment","legacy","legacy","0","uniform","1","1","m","0","0","0","0","0","50","NA","NA","50","50","0","50","50","50","50","0","11/28/15 14:15:18","Default description","no","mono","no","18","black","Ok","768","legacy","W:/school/cognetive-modeling/simulationdata/subject-2423529.csv","xpyriment","Interactive Ising","3.0.3","0","m","NA","NA","m","314","NA","NA","314","legacy","experiment","2423529","odd","legacy","59231","NA","NA","NA","NA","265283","NA","NA","264168","264968","1605","265283","262667","262665","264968","1605","CogMod 2015 Experiment","50","18141","51","yes","1024"
"1","400","150","15","98.0769230769","98.0769230769","356","356","white","no","xpyriment","legacy","legacy","0","uniform","1","1","m","0","0","0","0","0","51","NA","NA","51","51","0","51","51","51","51","0","11/28/15 14:15:18","Default description","no","mono","no","18","black","Ok","768","legacy","W:/school/cognetive-modeling/simulationdata/subject-2423529.csv","xpyriment","Interactive Ising","3.0.3","0","m","NA","NA","m","383","NA","NA","383","legacy","experiment","2423529","odd","legacy","59231","NA","NA","NA","NA","268691","NA","NA","267907","268307","1605","268691","266406","266406","268307","1605","CogMod 2015 Experiment","51","18524","52","yes","1024"
"1","1600","150","15","98.1132075472","98.1132075472","356","356","white","no","xpyriment","legacy","legacy","0","uniform","1","1","m","0","0","0","0","0","52","NA","NA","52","52","0","52","52","52","52","0","11/28/15 14:15:18","Default description","no","mono","no","18","black","Ok","768","legacy","W:/school/cognetive-modeling/simulationdata/subject-2423529.csv","xpyriment","Interactive Ising","3.0.3","0","m","NA","NA","m","376","NA","NA","376","legacy","experiment","2423529","odd","legacy","59231","NA","NA","NA","NA","273334","NA","NA","271357","272957","1605","273334","269857","269856","272957","1605","CogMod 2015 Experiment","52","18900","53","yes","1024"
"1","1200","-150","15","98.1481481481","98.1481481481","355","355","white","no","xpyriment","legacy","legacy","0","uniform","1","1","z","0","0","0","0","0","53","NA","NA","53","53","0","53","53","53","53","0","11/28/15 14:15:18","Default description","no","mono","no","18","black","Ok","768","legacy","W:/school/cognetive-modeling/simulationdata/subject-2423529.csv","xpyriment","Interactive Ising","3.0.3","0","z","NA","NA","z","299","NA","NA","299","legacy","experiment","2423529","odd","legacy","59231","NA","NA","NA","NA","277482","NA","NA","275982","277182","1605","277482","274482","274481","277182","1605","CogMod 2015 Experiment","53","19199","54","yes","1024"
"1","1200","-150","15","98.1818181818","98.1818181818","354","354","white","no","xpyriment","legacy","legacy","0","uniform","1","1","z","0","0","0","0","0","54","NA","NA","54","54","0","54","54","54","54","0","11/28/15 14:15:18","Default description","no","mono","no","18","black","Ok","768","legacy","W:/school/cognetive-modeling/simulationdata/subject-2423529.csv","xpyriment","Interactive Ising","3.0.3","0","z","NA","NA","z","303","NA","NA","303","legacy","experiment","2423529","odd","legacy","59231","NA","NA","NA","NA","281623","NA","NA","280119","281319","1605","281623","278619","278619","281319","1605","CogMod 2015 Experiment","54","19502","55","yes","1024"
"1","400","-150","15","98.2142857143","98.2142857143","356","356","white","no","xpyriment","legacy","legacy","0","uniform","1","1","z","0","0","0","0","0","55","NA","NA","55","55","0","55","55","55","55","0","11/28/15 14:15:18","Default description","no","mono","no","18","black","Ok","768","legacy","W:/school/cognetive-modeling/simulationdata/subject-2423529.csv","xpyriment","Interactive Ising","3.0.3","0","z","NA","NA","z","436","NA","NA","436","legacy","experiment","2423529","odd","legacy","59231","NA","NA","NA","NA","285093","NA","NA","284256","284656","1605","285093","282756","282755","284656","1605","CogMod 2015 Experiment","55","19938","56","yes","1024"
"1","400","150","15","98.2456140351","98.2456140351","356","356","white","no","xpyriment","legacy","legacy","0","uniform","1","1","m","0","0","0","0","0","56","NA","NA","56","56","0","56","56","56","56","0","11/28/15 14:15:18","Default description","no","mono","no","18","black","Ok","768","legacy","W:/school/cognetive-modeling/simulationdata/subject-2423529.csv","xpyriment","Interactive Ising","3.0.3","0","m","NA","NA","m","367","NA","NA","367","legacy","experiment","2423529","odd","legacy","59231","NA","NA","NA","NA","288330","NA","NA","287562","287962","1605","288330","286062","286061","287962","1605","CogMod 2015 Experiment","56","20305","57","yes","1024"
"1","800","-150","15","98.275862069","98.275862069","354","354","white","no","xpyriment","legacy","legacy","0","uniform","1","1","z","0","0","0","0","0","57","NA","NA","57","57","0","57","57","57","57","0","11/28/15 14:15:18","Default description","no","mono","no","18","black","Ok","768","legacy","W:/school/cognetive-modeling/simulationdata/subject-2423529.csv","xpyriment","Interactive Ising","3.0.3","0","z","NA","NA","z","254","NA","NA","254","legacy","experiment","2423529","odd","legacy","59231","NA","NA","NA","NA","291853","NA","NA","290798","291598","1605","291853","289298","289297","291598","1605","CogMod 2015 Experiment","57","20559","58","yes","1024"
"1","400","-150","15","98.3050847458","98.3050847458","354","354","white","no","xpyriment","legacy","legacy","0","uniform","1","1","z","0","0","0","0","0","58","NA","NA","58","58","0","58","58","58","58","0","11/28/15 14:15:18","Default description","no","mono","no","18","black","Ok","768","legacy","W:/school/cognetive-modeling/simulationdata/subject-2423529.csv","xpyriment","Interactive Ising","3.0.3","0","z","NA","NA","z","341","NA","NA","341","legacy","experiment","2423529","odd","legacy","59231","NA","NA","NA","NA","295345","NA","NA","294603","295003","1605","295345","293103","293102","295003","1605","CogMod 2015 Experiment","58","20900","59","yes","1024"
"1","1600","-150","15","98.3333333333","98.3333333333","353","353","white","no","xpyriment","legacy","legacy","0","uniform","1","1","z","0","0","0","0","0","59","NA","NA","59","59","0","59","59","59","59","0","11/28/15 14:15:18","Default description","no","mono","no","18","black","Ok","768","legacy","W:/school/cognetive-modeling/simulationdata/subject-2423529.csv","xpyriment","Interactive Ising","3.0.3","0","z","NA","NA","z","294","NA","NA","294","legacy","experiment","2423529","odd","legacy","59231","NA","NA","NA","NA","299941","NA","NA","298046","299646","1605","299941","296546","296545","299646","1605","CogMod 2015 Experiment","59","21194","60","yes","1024"
"1","1200","150","15","98.3606557377","98.3606557377","352","352","white","no","xpyriment","legacy","legacy","0","uniform","1","1","m","0","0","0","0","0","60","NA","NA","60","60","0","60","60","60","60","0","11/28/15 14:15:18","Default description","no","mono","no","18","black","Ok","768","legacy","W:/school/cognetive-modeling/simulationdata/subject-2423529.csv","xpyriment","Interactive Ising","3.0.3","0","m","NA","NA","m","300","NA","NA","300","legacy","experiment","2423529","odd","legacy","59231","NA","NA","NA","NA","304162","NA","NA","302661","303861","1605","304162","301161","301160","303861","1605","CogMod 2015 Experiment","60","21494","61","yes","1024"
"1","800","-150","15","98.3870967742","98.3870967742","351","351","white","no","xpyriment","legacy","legacy","0","uniform","1","1","z","0","0","0","0","0","61","NA","NA","61","61","0","61","61","61","61","0","11/28/15 14:15:18","Default description","no","mono","no","18","black","Ok","768","legacy","W:/school/cognetive-modeling/simulationdata/subject-2423529.csv","xpyriment","Interactive Ising","3.0.3","0","z","NA","NA","z","296","NA","NA","296","legacy","experiment","2423529","odd","legacy","59231","NA","NA","NA","NA","308028","NA","NA","306931","307731","1605","308028","305431","305431","307731","1605","CogMod 2015 Experiment","61","21790","62","yes","1024"
"1","800","-150","15","98.4126984127","98.4126984127","350","350","white","no","xpyriment","legacy","legacy","0","uniform","1","1","z","0","0","0","0","0","62","NA","NA","62","62","0","62","62","62","62","0","11/28/15 14:15:18","Default description","no","mono","no","18","black","Ok","768","legacy","W:/school/cognetive-modeling/simulationdata/subject-2423529.csv","xpyriment","Interactive Ising","3.0.3","0","z","NA","NA","z","305","NA","NA","305","legacy","experiment","2423529","odd","legacy","59231","NA","NA","NA","NA","311630","NA","NA","310524","311324","1605","311630","309024","309023","311324","1605","CogMod 2015 Experiment","62","22095","63","yes","1024"
"1","1600","150","15","98.4375","98.4375","350","350","white","no","xpyriment","legacy","legacy","0","uniform","1","1","m","0","0","0","0","0","63","NA","NA","63","63","0","63","63","63","63","0","11/28/15 14:15:18","Default description","no","mono","no","18","black","Ok","768","legacy","W:/school/cognetive-modeling/simulationdata/subject-2423529.csv","xpyriment","Interactive Ising","3.0.3","0","m","NA","NA","m","319","NA","NA","319","legacy","experiment","2423529","odd","legacy","59231","NA","NA","NA","NA","316109","NA","NA","314189","315789","1605","316109","312689","312688","315789","1605","CogMod 2015 Experiment","63","22414","64","yes","1024"
"1","1200","-150","15","98.4615384615","98.4615384615","349","349","white","no","xpyriment","legacy","legacy","0","uniform","1","1","z","0","0","0","0","0","64","NA","NA","64","64","0","64","64","64","64","0","11/28/15 14:15:18","Default description","no","mono","no","18","black","Ok","768","legacy","W:/school/cognetive-modeling/simulationdata/subject-2423529.csv","xpyriment","Interactive Ising","3.0.3","0","z","NA","NA","z","287","NA","NA","287","legacy","experiment","2423529","odd","legacy","59231","NA","NA","NA","NA","320204","NA","NA","318716","319916","1605","320204","317216","317216","319916","1605","CogMod 2015 Experiment","64","22701","65","yes","1024"
"1","1600","150","15","98.4848484848","98.4848484848","348","348","white","no","xpyriment","legacy","legacy","0","uniform","1","1","m","0","0","0","0","0","65","NA","NA","65","65","0","65","65","65","65","0","11/28/15 14:15:18","Default description","no","mono","no","18","black","Ok","768","legacy","W:/school/cognetive-modeling/simulationdata/subject-2423529.csv","xpyriment","Interactive Ising","3.0.3","0","m","NA","NA","m","280","NA","NA","280","legacy","experiment","2423529","odd","legacy","59231","NA","NA","NA","NA","324732","NA","NA","322851","324451","1605","324732","321351","321351","324451","1605","CogMod 2015 Experiment","65","22981","66","yes","1024"
"1","1600","150","15","98.5074626866","98.5074626866","347","347","white","no","xpyriment","legacy","legacy","0","uniform","1","1","m","0","0","0","0","0","66","NA","NA","66","66","0","66","66","66","66","0","11/28/15 14:15:18","Default description","no","mono","no","18","black","Ok","768","legacy","W:/school/cognetive-modeling/simulationdata/subject-2423529.csv","xpyriment","Interactive Ising","3.0.3","0","m","NA","NA","m","334","NA","NA","334","legacy","experiment","2423529","odd","legacy","59231","NA","NA","NA","NA","329322","NA","NA","327387","328987","1605","329322","325887","325887","328987","1605","CogMod 2015 Experiment","66","23315","67","yes","1024"
"1","1600","150","15","98.5294117647","98.5294117647","347","347","white","no","xpyriment","legacy","legacy","0","uniform","1","1","m","0","0","0","0","0","67","NA","NA","67","67","0","67","67","67","67","0","11/28/15 14:15:18","Default description","no","mono","no","18","black","Ok","768","legacy","W:/school/cognetive-modeling/simulationdata/subject-2423529.csv","xpyriment","Interactive Ising","3.0.3","0","m","NA","NA","m","321","NA","NA","321","legacy","experiment","2423529","odd","legacy","59231","NA","NA","NA","NA","333901","NA","NA","331979","333579","1605","333902","330479","330478","333579","1605","CogMod 2015 Experiment","67","23636","68","yes","1024"
"1","400","150","15","98.5507246377","98.5507246377","347","347","white","no","xpyriment","legacy","legacy","0","uniform","1","1","m","0","0","0","0","0","68","NA","NA","68","68","0","68","68","68","68","0","11/28/15 14:15:18","Default description","no","mono","no","18","black","Ok","768","legacy","W:/school/cognetive-modeling/simulationdata/subject-2423529.csv","xpyriment","Interactive Ising","3.0.3","0","m","NA","NA","m","335","NA","NA","335","legacy","experiment","2423529","odd","legacy","59231","NA","NA","NA","NA","337272","NA","NA","336536","336936","1605","337272","335036","335036","336936","1605","CogMod 2015 Experiment","68","23971","69","yes","1024"
"1","1600","150","15","98.5714285714","98.5714285714","347","347","white","no","xpyriment","legacy","legacy","0","uniform","1","1","m","0","0","0","0","0","69","NA","NA","69","69","0","69","69","69","69","0","11/28/15 14:15:18","Default description","no","mono","no","18","black","Ok","768","legacy","W:/school/cognetive-modeling/simulationdata/subject-2423529.csv","xpyriment","Interactive Ising","3.0.3","0","m","NA","NA","m","334","NA","NA","334","legacy","experiment","2423529","odd","legacy","59231","NA","NA","NA","NA","341875","NA","NA","339940","341540","1605","341875","338440","338439","341540","1605","CogMod 2015 Experiment","69","24305","70","yes","1024"
"1","1200","-150","15","98.5915492958","98.5915492958","346","346","white","no","xpyriment","legacy","legacy","0","uniform","1","1","z","0","0","0","0","0","70","NA","NA","70","70","0","70","70","70","70","0","11/28/15 14:15:18","Default description","no","mono","no","18","black","Ok","768","legacy","W:/school/cognetive-modeling/simulationdata/subject-2423529.csv","xpyriment","Interactive Ising","3.0.3","0","z","NA","NA","z","313","NA","NA","313","legacy","experiment","2423529","odd","legacy","59231","NA","NA","NA","NA","346009","NA","NA","344495","345695","1605","346009","342995","342995","345695","1605","CogMod 2015 Experiment","70","24618","71","yes","1024"
"1","1600","150","15","98.6111111111","98.6111111111","345","345","white","no","xpyriment","legacy","legacy","0","uniform","1","1","m","0","0","0","0","0","71","NA","NA","71","71","0","71","71","71","71","0","11/28/15 14:15:18","Default description","no","mono","no","18","black","Ok","768","legacy","W:/school/cognetive-modeling/simulationdata/subject-2423529.csv","xpyriment","Interactive Ising","3.0.3","0","m","NA","NA","m","278","NA","NA","278","legacy","experiment","2423529","odd","legacy","59231","NA","NA","NA","NA","350572","NA","NA","348693","350293","1605","350572","347193","347192","350293","1605","CogMod 2015 Experiment","71","24896","72","yes","1024"
"1","1600","-150","15","98.6301369863","98.6301369863","344","344","white","no","xpyriment","legacy","legacy","0","uniform","1","1","z","0","0","0","0","0","72","NA","NA","72","72","0","72","72","72","72","0","11/28/15 14:15:18","Default description","no","mono","no","18","black","Ok","768","legacy","W:/school/cognetive-modeling/simulationdata/subject-2423529.csv","xpyriment","Interactive Ising","3.0.3","0","z","NA","NA","z","278","NA","NA","278","legacy","experiment","2423529","odd","legacy","59231","NA","NA","NA","NA","355061","NA","NA","353182","354782","1605","355061","351682","351682","354782","1605","CogMod 2015 Experiment","72","25174","73","yes","1024"
"1","400","-150","15","98.6486486486","98.6486486486","345","345","white","no","xpyriment","legacy","legacy","0","uniform","1","1","z","0","0","0","0","0","73","NA","NA","73","73","0","73","73","73","73","0","11/28/15 14:15:18","Default description","no","mono","no","18","black","Ok","768","legacy","W:/school/cognetive-modeling/simulationdata/subject-2423529.csv","xpyriment","Interactive Ising","3.0.3","0","z","NA","NA","z","382","NA","NA","382","legacy","experiment","2423529","odd","legacy","59231","NA","NA","NA","NA","358547","NA","NA","357764","358164","1605","358547","356263","356261","358164","1605","CogMod 2015 Experiment","73","25556","74","yes","1024"
"1","1200","-150","15","98.6666666667","98.6666666667","344","344","white","no","xpyriment","legacy","legacy","0","uniform","1","1","z","0","0","0","0","0","74","NA","NA","74","74","0","74","74","74","74","0","11/28/15 14:15:18","Default description","no","mono","no","18","black","Ok","768","legacy","W:/school/cognetive-modeling/simulationdata/subject-2423529.csv","xpyriment","Interactive Ising","3.0.3","0","z","NA","NA","z","318","NA","NA","318","legacy","experiment","2423529","odd","legacy","59231","NA","NA","NA","NA","362737","NA","NA","361218","362418","1605","362737","359718","359718","362418","1605","CogMod 2015 Experiment","74","25874","75","yes","1024"
"1","800","-150","15","98.6842105263","98.6842105263","344","344","white","no","xpyriment","legacy","legacy","0","uniform","1","1","z","0","0","0","0","0","75","NA","NA","75","75","0","75","75","75","75","0","11/28/15 14:15:18","Default description","no","mono","no","18","black","Ok","768","legacy","W:/school/cognetive-modeling/simulationdata/subject-2423529.csv","xpyriment","Interactive Ising","3.0.3","0","z","NA","NA","z","301","NA","NA","301","legacy","experiment","2423529","odd","legacy","59231","NA","NA","NA","NA","366371","NA","NA","365269","366069","1605","366371","363769","363768","366069","1605","CogMod 2015 Experiment","75","26175","76","yes","1024"
"1","1200","150","15","98.7012987013","98.7012987013","345","345","white","no","xpyriment","legacy","legacy","0","uniform","1","1","m","0","0","0","0","0","76","NA","NA","76","76","0","76","76","76","76","0","11/28/15 14:15:18","Default description","no","mono","no","18","black","Ok","768","legacy","W:/school/cognetive-modeling/simulationdata/subject-2423529.csv","xpyriment","Interactive Ising","3.0.3","0","m","NA","NA","m","421","NA","NA","421","legacy","experiment","2423529","odd","legacy","59231","NA","NA","NA","NA","370625","NA","NA","369003","370203","1605","370625","367503","367502","370203","1605","CogMod 2015 Experiment","76","26596","77","yes","1024"
"1","800","150","15","98.7179487179","98.7179487179","345","345","white","no","xpyriment","legacy","legacy","0","uniform","1","1","m","0","0","0","0","0","77","NA","NA","77","77","0","77","77","77","77","0","11/28/15 14:15:18","Default description","no","mono","no","18","black","Ok","768","legacy","W:/school/cognetive-modeling/simulationdata/subject-2423529.csv","xpyriment","Interactive Ising","3.0.3","0","m","NA","NA","m","337","NA","NA","337","legacy","experiment","2423529","odd","legacy","59231","NA","NA","NA","NA","374313","NA","NA","373175","373975","1605","374313","371675","371674","373975","1605","CogMod 2015 Experiment","77","26933","78","yes","1024"
"1","1200","-150","15","98.7341772152","98.7341772152","344","344","white","no","xpyriment","legacy","legacy","0","uniform","1","1","z","0","0","0","0","0","78","NA","NA","78","78","0","78","78","78","78","0","11/28/15 14:15:18","Default description","no","mono","no","18","black","Ok","768","legacy","W:/school/cognetive-modeling/simulationdata/subject-2423529.csv","xpyriment","Interactive Ising","3.0.3","0","z","NA","NA","z","255","NA","NA","255","legacy","experiment","2423529","odd","legacy","59231","NA","NA","NA","NA","378237","NA","NA","376781","377981","1605","378237","375281","375280","377981","1605","CogMod 2015 Experiment","78","27188","79","yes","1024"
"1","800","-150","15","98.75","98.75","343","343","white","no","xpyriment","legacy","legacy","0","uniform","1","1","z","0","0","0","0","0","79","NA","NA","79","79","0","79","79","79","79","0","11/28/15 14:15:18","Default description","no","mono","no","18","black","Ok","768","legacy","W:/school/cognetive-modeling/simulationdata/subject-2423529.csv","xpyriment","Interactive Ising","3.0.3","0","z","NA","NA","z","299","NA","NA","299","legacy","experiment","2423529","odd","legacy","59231","NA","NA","NA","NA","381900","NA","NA","380800","381600","1605","381900","379299","379299","381600","1605","CogMod 2015 Experiment","79","27487","80","yes","1024"
"1","400","150","15","98.7654320988","98.7654320988","343","343","white","no","xpyriment","legacy","legacy","0","uniform","1","1","m","0","0","0","0","0","80","NA","NA","80","80","0","80","80","80","80","0","11/28/15 14:15:18","Default description","no","mono","no","18","black","Ok","768","legacy","W:/school/cognetive-modeling/simulationdata/subject-2423529.csv","xpyriment","Interactive Ising","3.0.3","0","m","NA","NA","m","303","NA","NA","303","legacy","experiment","2423529","odd","legacy","59231","NA","NA","NA","NA","385196","NA","NA","384492","384892","1605","385196","382992","382991","384892","1605","CogMod 2015 Experiment","80","27790","81","yes","1024"
"1","1600","-150","15","98.7804878049","98.7804878049","341","341","white","no","xpyriment","legacy","legacy","0","uniform","1","1","z","0","0","0","0","0","81","NA","NA","81","81","0","81","81","81","81","0","11/28/15 14:15:18","Default description","no","mono","no","18","black","Ok","768","legacy","W:/school/cognetive-modeling/simulationdata/subject-2423529.csv","xpyriment","Interactive Ising","3.0.3","0","z","NA","NA","z","247","NA","NA","247","legacy","experiment","2423529","odd","legacy","59231","NA","NA","NA","NA","389818","NA","NA","387970","389570","1605","389818","386469","386469","389570","1605","CogMod 2015 Experiment","81","28037","82","yes","1024"
"1","1600","150","15","98.7951807229","98.7951807229","343","343","white","no","xpyriment","legacy","legacy","0","uniform","1","1","m","0","0","0","0","0","82","NA","NA","82","82","0","82","82","82","82","0","11/28/15 14:15:18","Default description","no","mono","no","18","black","Ok","768","legacy","W:/school/cognetive-modeling/simulationdata/subject-2423529.csv","xpyriment","Interactive Ising","3.0.3","0","m","NA","NA","m","438","NA","NA","438","legacy","experiment","2423529","odd","legacy","59231","NA","NA","NA","NA","394392","NA","NA","392352","393952","1605","394392","390852","390852","393952","1605","CogMod 2015 Experiment","82","28475","83","yes","1024"
"1","800","150","15","98.8095238095","98.8095238095","342","342","white","no","xpyriment","legacy","legacy","0","uniform","1","1","m","0","0","0","0","0","83","NA","NA","83","83","0","83","83","83","83","0","11/28/15 14:15:18","Default description","no","mono","no","18","black","Ok","768","legacy","W:/school/cognetive-modeling/simulationdata/subject-2423529.csv","xpyriment","Interactive Ising","3.0.3","0","m","NA","NA","m","334","NA","NA","334","legacy","experiment","2423529","odd","legacy","59231","NA","NA","NA","NA","398070","NA","NA","396935","397735","1605","398070","395435","395434","397735","1605","CogMod 2015 Experiment","83","28809","84","yes","1024"
"1","400","150","15","98.8235294118","98.8235294118","342","342","white","no","xpyriment","legacy","legacy","0","uniform","1","1","m","0","0","0","0","0","84","NA","NA","84","84","0","84","84","84","84","0","11/28/15 14:15:18","Default description","no","mono","no","18","black","Ok","768","legacy","W:/school/cognetive-modeling/simulationdata/subject-2423529.csv","xpyriment","Interactive Ising","3.0.3","0","m","NA","NA","m","340","NA","NA","340","legacy","experiment","2423529","odd","legacy","59231","NA","NA","NA","NA","401338","NA","NA","400597","400997","1605","401338","399097","399096","400997","1605","CogMod 2015 Experiment","84","29149","85","yes","1024"
"1","400","150","15","98.8372093023","98.8372093023","342","342","white","no","xpyriment","legacy","legacy","0","uniform","1","1","m","0","0","0","0","0","85","NA","NA","85","85","0","85","85","85","85","0","11/28/15 14:15:18","Default description","no","mono","no","18","black","Ok","768","legacy","W:/school/cognetive-modeling/simulationdata/subject-2423529.csv","xpyriment","Interactive Ising","3.0.3","0","m","NA","NA","m","313","NA","NA","313","legacy","experiment","2423529","odd","legacy","59231","NA","NA","NA","NA","404524","NA","NA","403810","404210","1605","404524","402310","402309","404210","1605","CogMod 2015 Experiment","85","29462","86","yes","1024"
"1","1200","150","15","98.8505747126","98.8505747126","342","342","white","no","xpyriment","legacy","legacy","0","uniform","1","1","m","0","0","0","0","0","86","NA","NA","86","86","0","86","86","86","86","0","11/28/15 14:15:18","Default description","no","mono","no","18","black","Ok","768","legacy","W:/school/cognetive-modeling/simulationdata/subject-2423529.csv","xpyriment","Interactive Ising","3.0.3","0","m","NA","NA","m","308","NA","NA","308","legacy","experiment","2423529","odd","legacy","59231","NA","NA","NA","NA","408462","NA","NA","406953","408153","1605","408462","405453","405453","408153","1605","CogMod 2015 Experiment","86","29770","87","yes","1024"
"1","400","150","15","98.8636363636","98.8636363636","343","343","white","no","xpyriment","legacy","legacy","0","uniform","1","1","m","0","0","0","0","0","87","NA","NA","87","87","0","87","87","87","87","0","11/28/15 14:15:18","Default description","no","mono","no","18","black","Ok","768","legacy","W:/school/cognetive-modeling/simulationdata/subject-2423529.csv","xpyriment","Interactive Ising","3.0.3","0","m","NA","NA","m","432","NA","NA","432","legacy","experiment","2423529","odd","legacy","59231","NA","NA","NA","NA","411887","NA","NA","411054","411454","1605","411887","409554","409554","411454","1605","CogMod 2015 Experiment","87","30202","88","yes","1024"
"1","1600","150","15","98.8764044944","98.8764044944","342","342","white","no","xpyriment","legacy","legacy","0","uniform","1","1","m","0","0","0","0","0","88","NA","NA","88","88","0","88","88","88","88","0","11/28/15 14:15:18","Default description","no","mono","no","18","black","Ok","768","legacy","W:/school/cognetive-modeling/simulationdata/subject-2423529.csv","xpyriment","Interactive Ising","3.0.3","0","m","NA","NA","m","321","NA","NA","321","legacy","experiment","2423529","odd","legacy","59231","NA","NA","NA","NA","416299","NA","NA","414377","415977","1605","416299","412877","412876","415977","1605","CogMod 2015 Experiment","88","30523","89","yes","1024"
"1","800","-150","15","98.8888888889","98.8888888889","342","342","white","no","xpyriment","legacy","legacy","0","uniform","1","1","z","0","0","0","0","0","89","NA","NA","89","89","0","89","89","89","89","0","11/28/15 14:15:18","Default description","no","mono","no","18","black","Ok","768","legacy","W:/school/cognetive-modeling/simulationdata/subject-2423529.csv","xpyriment","Interactive Ising","3.0.3","0","z","NA","NA","z","269","NA","NA","269","legacy","experiment","2423529","odd","legacy","59231","NA","NA","NA","NA","419985","NA","NA","418915","419715","1605","419985","417415","417414","419715","1605","CogMod 2015 Experiment","89","30792","90","yes","1024"
"1","400","-150","15","98.9010989011","98.9010989011","342","342","white","no","xpyriment","legacy","legacy","0","uniform","1","1","z","0","0","0","0","0","90","NA","NA","90","90","0","90","90","90","90","0","11/28/15 14:15:18","Default description","no","mono","no","18","black","Ok","768","legacy","W:/school/cognetive-modeling/simulationdata/subject-2423529.csv","xpyriment","Interactive Ising","3.0.3","0","z","NA","NA","z","358","NA","NA","358","legacy","experiment","2423529","odd","legacy","59231","NA","NA","NA","NA","423237","NA","NA","422478","422878","1605","423237","420978","420977","422878","1605","CogMod 2015 Experiment","90","31150","91","yes","1024"
"1","800","-150","15","98.9130434783","98.9130434783","342","342","white","no","xpyriment","legacy","legacy","0","uniform","1","1","z","0","0","0","0","0","91","NA","NA","91","91","0","91","91","91","91","0","11/28/15 14:15:18","Default description","no","mono","no","18","black","Ok","768","legacy","W:/school/cognetive-modeling/simulationdata/subject-2423529.csv","xpyriment","Interactive Ising","3.0.3","0","z","NA","NA","z","314","NA","NA","314","legacy","experiment","2423529","odd","legacy","59231","NA","NA","NA","NA","426854","NA","NA","425738","426538","1605","426854","424238","424238","426538","1605","CogMod 2015 Experiment","91","31464","92","yes","1024"
"1","400","-150","15","98.9247311828","98.9247311828","341","341","white","no","xpyriment","legacy","legacy","0","uniform","1","1","z","0","0","0","0","0","92","NA","NA","92","92","0","92","92","92","92","0","11/28/15 14:15:18","Default description","no","mono","no","18","black","Ok","768","legacy","W:/school/cognetive-modeling/simulationdata/subject-2423529.csv","xpyriment","Interactive Ising","3.0.3","0","z","NA","NA","z","312","NA","NA","312","legacy","experiment","2423529","odd","legacy","59231","NA","NA","NA","NA","430034","NA","NA","429321","429721","1605","430034","427821","427820","429721","1605","CogMod 2015 Experiment","92","31776","93","yes","1024"
"1","800","150","15","98.9361702128","98.9361702128","341","341","white","no","xpyriment","legacy","legacy","0","uniform","1","1","m","0","0","0","0","0","93","NA","NA","93","93","0","93","93","93","93","0","11/28/15 14:15:18","Default description","no","mono","no","18","black","Ok","768","legacy","W:/school/cognetive-modeling/simulationdata/subject-2423529.csv","xpyriment","Interactive Ising","3.0.3","0","m","NA","NA","m","312","NA","NA","312","legacy","experiment","2423529","odd","legacy","59231","NA","NA","NA","NA","433733","NA","NA","432620","433420","1605","433733","431119","431119","433420","1605","CogMod 2015 Experiment","93","32088","94","yes","1024"
"1","400","150","15","98.9473684211","98.9473684211","341","341","white","no","xpyriment","legacy","legacy","0","uniform","1","1","m","0","0","0","0","0","94","NA","NA","94","94","0","94","94","94","94","0","11/28/15 14:15:18","Default description","no","mono","no","18","black","Ok","768","legacy","W:/school/cognetive-modeling/simulationdata/subject-2423529.csv","xpyriment","Interactive Ising","3.0.3","0","m","NA","NA","m","350","NA","NA","350","legacy","experiment","2423529","odd","legacy","59231","NA","NA","NA","NA","436971","NA","NA","436220","436620","1605","436971","434720","434719","436620","1605","CogMod 2015 Experiment","94","32438","95","yes","1024"
"1","1600","-150","15","98.9583333333","98.9583333333","340","340","white","no","xpyriment","legacy","legacy","0","uniform","1","1","z","0","0","0","0","0","95","NA","NA","95","95","0","95","95","95","95","0","11/28/15 14:15:18","Default description","no","mono","no","18","black","Ok","768","legacy","W:/school/cognetive-modeling/simulationdata/subject-2423529.csv","xpyriment","Interactive Ising","3.0.3","0","z","NA","NA","z","269","NA","NA","269","legacy","experiment","2423529","odd","legacy","59231","NA","NA","NA","NA","441403","NA","NA","439533","441133","1605","441403","438033","438032","441133","1605","CogMod 2015 Experiment","95","32707","96","yes","1024"
"1","400","-150","15","98.9690721649","98.9690721649","341","341","white","no","xpyriment","legacy","legacy","0","uniform","1","1","z","0","0","0","0","0","96","NA","NA","96","96","0","96","96","96","96","0","11/28/15 14:15:18","Default description","no","mono","no","18","black","Ok","768","legacy","W:/school/cognetive-modeling/simulationdata/subject-2423529.csv","xpyriment","Interactive Ising","3.0.3","0","z","NA","NA","z","391","NA","NA","391","legacy","experiment","2423529","odd","legacy","59231","NA","NA","NA","NA","444493","NA","NA","443701","444101","1605","444493","442200","442198","444101","1605","CogMod 2015 Experiment","96","33098","97","yes","1024"
"1","1200","-150","15","98.9795918367","98.9795918367","341","341","white","no","xpyriment","legacy","legacy","0","uniform","1","1","z","0","0","0","0","0","97","NA","NA","97","97","0","97","97","97","97","0","11/28/15 14:15:18","Default description","no","mono","no","18","black","Ok","768","legacy","W:/school/cognetive-modeling/simulationdata/subject-2423529.csv","xpyriment","Interactive Ising","3.0.3","0","z","NA","NA","z","320","NA","NA","320","legacy","experiment","2423529","odd","legacy","59231","NA","NA","NA","NA","448627","NA","NA","447106","448306","1605","448627","445606","445605","448306","1605","CogMod 2015 Experiment","97","33418","98","yes","1024"
"1","1200","150","15","98.9898989899","98.9898989899","340","340","white","no","xpyriment","legacy","legacy","0","uniform","1","1","m","0","0","0","0","0","98","NA","NA","98","98","0","98","98","98","98","0","11/28/15 14:15:18","Default description","no","mono","no","18","black","Ok","768","legacy","W:/school/cognetive-modeling/simulationdata/subject-2423529.csv","xpyriment","Interactive Ising","3.0.3","0","m","NA","NA","m","272","NA","NA","272","legacy","experiment","2423529","odd","legacy","59231","NA","NA","NA","NA","452547","NA","NA","451074","452274","1605","452547","449574","449573","452274","1605","CogMod 2015 Experiment","98","33690","99","yes","1024"
"1","800","-150","15","99","99","339","339","white","no","xpyriment","legacy","legacy","0","uniform","1","1","z","0","0","0","0","0","99","NA","NA","99","99","0","99","99","99","99","0","11/28/15 14:15:18","Default description","no","mono","no","18","black","Ok","768","legacy","W:/school/cognetive-modeling/simulationdata/subject-2423529.csv","xpyriment","Interactive Ising","3.0.3","0","z","NA","NA","z","279","NA","NA","279","legacy","experiment","2423529","odd","legacy","59231","NA","NA","NA","NA","456151","NA","NA","455071","455871","1605","456151","453571","453570","455871","1605","CogMod 2015 Experiment","99","33969","100","yes","1024"
"1","800","150","15","99.0099009901","99.0099009901","339","339","white","no","xpyriment","legacy","legacy","0","uniform","1","1","m","0","0","0","0","0","100","NA","NA","100","100","0","100","100","100","100","0","11/28/15 14:15:18","Default description","no","mono","no","18","black","Ok","768","legacy","W:/school/cognetive-modeling/simulationdata/subject-2423529.csv","xpyriment","Interactive Ising","3.0.3","0","m","NA","NA","m","300","NA","NA","300","legacy","experiment","2423529","odd","legacy","59231","NA","NA","NA","NA","459809","NA","NA","458707","459507","1605","459809","457207","457206","459507","1605","CogMod 2015 Experiment","100","34269","101","yes","1024"
"1","1600","150","15","99.0196078431","99.0196078431","339","339","white","no","xpyriment","legacy","legacy","0","uniform","1","1","m","0","0","0","0","0","101","NA","NA","101","101","0","101","101","101","101","0","11/28/15 14:15:18","Default description","no","mono","no","18","black","Ok","768","legacy","W:/school/cognetive-modeling/simulationdata/subject-2423529.csv","xpyriment","Interactive Ising","3.0.3","0","m","NA","NA","m","330","NA","NA","330","legacy","experiment","2423529","odd","legacy","59231","NA","NA","NA","NA","464420","NA","NA","462489","464089","1605","464420","460989","460988","464089","1605","CogMod 2015 Experiment","101","34599","102","yes","1024"
"1","800","-150","15","99.0291262136","99.0291262136","339","339","white","no","xpyriment","legacy","legacy","0","uniform","1","1","z","0","0","0","0","0","102","NA","NA","102","102","0","102","102","102","102","0","11/28/15 14:15:18","Default description","no","mono","no","18","black","Ok","768","legacy","W:/school/cognetive-modeling/simulationdata/subject-2423529.csv","xpyriment","Interactive Ising","3.0.3","0","z","NA","NA","z","320","NA","NA","320","legacy","experiment","2423529","odd","legacy","59231","NA","NA","NA","NA","468019","NA","NA","466898","467698","1605","468019","465398","465397","467698","1605","CogMod 2015 Experiment","102","34919","103","yes","1024"
"1","800","-150","15","99.0384615385","99.0384615385","339","339","white","no","xpyriment","legacy","legacy","0","uniform","1","1","z","0","0","0","0","0","103","NA","NA","103","103","0","103","103","103","103","0","11/28/15 14:15:18","Default description","no","mono","no","18","black","Ok","768","legacy","W:/school/cognetive-modeling/simulationdata/subject-2423529.csv","xpyriment","Interactive Ising","3.0.3","0","z","NA","NA","z","393","NA","NA","393","legacy","experiment","2423529","odd","legacy","59231","NA","NA","NA","NA","471666","NA","NA","470472","471272","1605","471666","468972","468972","471272","1605","CogMod 2015 Experiment","103","35312","104","yes","1024"
"1","800","150","15","99.0476190476","99.0476190476","339","339","white","no","xpyriment","legacy","legacy","0","uniform","1","1","m","0","0","0","0","0","104","NA","NA","104","104","0","104","104","104","104","0","11/28/15 14:15:18","Default description","no","mono","no","18","black","Ok","768","legacy","W:/school/cognetive-modeling/simulationdata/subject-2423529.csv","xpyriment","Interactive Ising","3.0.3","0","m","NA","NA","m","318","NA","NA","318","legacy","experiment","2423529","odd","legacy","59231","NA","NA","NA","NA","475417","NA","NA","474298","475098","1605","475417","472798","472798","475098","1605","CogMod 2015 Experiment","104","35630","105","yes","1024"
"1","400","-150","15","99.0566037736","99.0566037736","339","339","white","no","xpyriment","legacy","legacy","0","uniform","1","1","z","0","0","0","0","0","105","NA","NA","105","105","0","105","105","105","105","0","11/28/15 14:15:18","Default description","no","mono","no","18","black","Ok","768","legacy","W:/school/cognetive-modeling/simulationdata/subject-2423529.csv","xpyriment","Interactive Ising","3.0.3","0","z","NA","NA","z","320","NA","NA","320","legacy","experiment","2423529","odd","legacy","59231","NA","NA","NA","NA","478906","NA","NA","478185","478585","1605","478906","476685","476684","478585","1605","CogMod 2015 Experiment","105","35950","106","yes","1024"
"1","400","150","15","99.0654205607","99.0654205607","339","339","white","no","xpyriment","legacy","legacy","0","uniform","1","1","m","0","0","0","0","0","106","NA","NA","106","106","0","106","106","106","106","0","11/28/15 14:15:18","Default description","no","mono","no","18","black","Ok","768","legacy","W:/school/cognetive-modeling/simulationdata/subject-2423529.csv","xpyriment","Interactive Ising","3.0.3","0","m","NA","NA","m","328","NA","NA","328","legacy","experiment","2423529","odd","legacy","59231","NA","NA","NA","NA","482317","NA","NA","481588","481988","1605","482317","480088","480087","481988","1605","CogMod 2015 Experiment","106","36278","107","yes","1024"
"1","1600","150","15","99.0740740741","99.0740740741","338","338","white","no","xpyriment","legacy","legacy","0","uniform","1","1","m","0","0","0","0","0","107","NA","NA","107","107","0","107","107","107","107","0","11/28/15 14:15:18","Default description","no","mono","no","18","black","Ok","768","legacy","W:/school/cognetive-modeling/simulationdata/subject-2423529.csv","xpyriment","Interactive Ising","3.0.3","0","m","NA","NA","m","306","NA","NA","306","legacy","experiment","2423529","odd","legacy","59231","NA","NA","NA","NA","486974","NA","NA","485067","486667","1605","486974","483567","483566","486667","1605","CogMod 2015 Experiment","107","36584","108","yes","1024"
"1","1600","150","15","99.0825688073","99.0825688073","338","338","white","no","xpyriment","legacy","legacy","0","uniform","1","1","m","0","0","0","0","0","108","NA","NA","108","108","0","108","108","108","108","0","11/28/15 14:15:18","Default description","no","mono","no","18","black","Ok","768","legacy","W:/school/cognetive-modeling/simulationdata/subject-2423529.csv","xpyriment","Interactive Ising","3.0.3","0","m","NA","NA","m","293","NA","NA","293","legacy","experiment","2423529","odd","legacy","59231","NA","NA","NA","NA","491405","NA","NA","489511","491111","1605","491405","488010","488010","491111","1605","CogMod 2015 Experiment","108","36877","109","yes","1024"
"1","1200","-150","15","99.0909090909","99.0909090909","337","337","white","no","xpyriment","legacy","legacy","0","uniform","1","1","z","0","0","0","0","0","109","NA","NA","109","109","0","109","109","109","109","0","11/28/15 14:15:18","Default description","no","mono","no","18","black","Ok","768","legacy","W:/school/cognetive-modeling/simulationdata/subject-2423529.csv","xpyriment","Interactive Ising","3.0.3","0","z","NA","NA","z","251","NA","NA","251","legacy","experiment","2423529","odd","legacy","59231","NA","NA","NA","NA","495391","NA","NA","493939","495139","1605","495391","492439","492438","495139","1605","CogMod 2015 Experiment","109","37128","110","yes","1024"
"1","800","-150","15","99.0990990991","99.0990990991","337","337","white","no","xpyriment","legacy","legacy","0","uniform","1","1","z","0","0","0","0","0","110","NA","NA","110","110","0","110","110","110","110","0","11/28/15 14:15:18","Default description","no","mono","no","18","black","Ok","768","legacy","W:/school/cognetive-modeling/simulationdata/subject-2423529.csv","xpyriment","Interactive Ising","3.0.3","0","z","NA","NA","z","348","NA","NA","348","legacy","experiment","2423529","odd","legacy","59231","NA","NA","NA","NA","499181","NA","NA","498032","498832","1605","499181","496532","496532","498832","1605","CogMod 2015 Experiment","110","37476","111","yes","1024"
"1","1200","150","15","99.1071428571","99.1071428571","336","336","white","no","xpyriment","legacy","legacy","0","uniform","1","1","m","0","0","0","0","0","111","NA","NA","111","111","0","111","111","111","111","0","11/28/15 14:15:18","Default description","no","mono","no","18","black","Ok","768","legacy","W:/school/cognetive-modeling/simulationdata/subject-2423529.csv","xpyriment","Interactive Ising","3.0.3","0","m","NA","NA","m","245","NA","NA","245","legacy","experiment","2423529","odd","legacy","59231","NA","NA","NA","NA","503276","NA","NA","501830","503030","1605","503276","500330","500329","503030","1605","CogMod 2015 Experiment","111","37721","112","yes","1024"
"1","1600","150","15","99.1150442478","99.1150442478","336","336","white","no","xpyriment","legacy","legacy","0","uniform","1","1","m","0","0","0","0","0","112","NA","NA","112","112","0","112","112","112","112","0","11/28/15 14:15:18","Default description","no","mono","no","18","black","Ok","768","legacy","W:/school/cognetive-modeling/simulationdata/subject-2423529.csv","xpyriment","Interactive Ising","3.0.3","0","m","NA","NA","m","351","NA","NA","351","legacy","experiment","2423529","odd","legacy","59231","NA","NA","NA","NA","507827","NA","NA","505875","507475","1605","507827","504375","504374","507475","1605","CogMod 2015 Experiment","112","38072","113","yes","1024"
"1","800","150","15","99.1228070175","99.1228070175","337","337","white","no","xpyriment","legacy","legacy","0","uniform","1","1","m","0","0","0","0","0","113","NA","NA","113","113","0","113","113","113","113","0","11/28/15 14:15:18","Default description","no","mono","no","18","black","Ok","768","legacy","W:/school/cognetive-modeling/simulationdata/subject-2423529.csv","xpyriment","Interactive Ising","3.0.3","0","m","NA","NA","m","384","NA","NA","384","legacy","experiment","2423529","odd","legacy","59231","NA","NA","NA","NA","511622","NA","NA","510437","511237","1605","511622","508937","508936","511237","1605","CogMod 2015 Experiment","113","38456","114","yes","1024"
"1","400","150","15","99.1304347826","99.1304347826","337","337","white","no","xpyriment","legacy","legacy","0","uniform","1","1","m","0","0","0","0","0","114","NA","NA","114","114","0","114","114","114","114","0","11/28/15 14:15:18","Default description","no","mono","no","18","black","Ok","768","legacy","W:/school/cognetive-modeling/simulationdata/subject-2423529.csv","xpyriment","Interactive Ising","3.0.3","0","m","NA","NA","m","357","NA","NA","357","legacy","experiment","2423529","odd","legacy","59231","NA","NA","NA","NA","514955","NA","NA","514197","514597","1605","514955","512697","512697","514597","1605","CogMod 2015 Experiment","114","38813","115","yes","1024"
"1","1200","-150","15","99.1379310345","99.1379310345","337","337","white","no","xpyriment","legacy","legacy","0","uniform","1","1","z","0","0","0","0","0","115","NA","NA","115","115","0","115","115","115","115","0","11/28/15 14:15:18","Default description","no","mono","no","18","black","Ok","768","legacy","W:/school/cognetive-modeling/simulationdata/subject-2423529.csv","xpyriment","Interactive Ising","3.0.3","0","z","NA","NA","z","312","NA","NA","312","legacy","experiment","2423529","odd","legacy","59231","NA","NA","NA","NA","519081","NA","NA","517568","518768","1605","519081","516068","516067","518768","1605","CogMod 2015 Experiment","115","39125","116","yes","1024"
"1","1200","150","15","99.1452991453","99.1452991453","336","336","white","no","xpyriment","legacy","legacy","0","uniform","1","1","m","0","0","0","0","0","116","NA","NA","116","116","0","116","116","116","116","0","11/28/15 14:15:18","Default description","no","mono","no","18","black","Ok","768","legacy","W:/school/cognetive-modeling/simulationdata/subject-2423529.csv","xpyriment","Interactive Ising","3.0.3","0","m","NA","NA","m","277","NA","NA","277","legacy","experiment","2423529","odd","legacy","59231","NA","NA","NA","NA","523154","NA","NA","521676","522876","1605","523154","520176","520175","522876","1605","CogMod 2015 Experiment","116","39402","117","yes","1024"
"1","800","150","15","99.1525423729","99.1525423729","336","336","white","no","xpyriment","legacy","legacy","0","uniform","1","1","m","0","0","0","0","0","117","NA","NA","117","117","0","117","117","117","117","0","11/28/15 14:15:18","Default description","no","mono","no","18","black","Ok","768","legacy","W:/school/cognetive-modeling/simulationdata/subject-2423529.csv","xpyriment","Interactive Ising","3.0.3","0","m","NA","NA","m","330","NA","NA","330","legacy","experiment","2423529","odd","legacy","59231","NA","NA","NA","NA","526927","NA","NA","525796","526596","1605","526927","524296","524296","526596","1605","CogMod 2015 Experiment","117","39732","118","yes","1024"
"1","400","-150","15","99.1596638655","99.1596638655","336","336","white","no","xpyriment","legacy","legacy","0","uniform","1","1","z","0","0","0","0","0","118","NA","NA","118","118","0","118","118","118","118","0","11/28/15 14:15:18","Default description","no","mono","no","18","black","Ok","768","legacy","W:/school/cognetive-modeling/simulationdata/subject-2423529.csv","xpyriment","Interactive Ising","3.0.3","0","z","NA","NA","z","368","NA","NA","368","legacy","experiment","2423529","odd","legacy","59231","NA","NA","NA","NA","530288","NA","NA","529519","529919","1605","530288","528019","528018","529919","1605","CogMod 2015 Experiment","118","40100","119","yes","1024"
"1","1200","150","15","99.1666666667","99.1666666667","336","336","white","no","xpyriment","legacy","legacy","0","uniform","1","1","m","0","0","0","0","0","119","NA","NA","119","119","0","119","119","119","119","0","11/28/15 14:15:18","Default description","no","mono","no","18","black","Ok","768","legacy","W:/school/cognetive-modeling/simulationdata/subject-2423529.csv","xpyriment","Interactive Ising","3.0.3","0","m","NA","NA","m","299","NA","NA","299","legacy","experiment","2423529","odd","legacy","59231","NA","NA","NA","NA","534467","NA","NA","532967","534167","1605","534467","531466","531464","534167","1605","CogMod 2015 Experiment","119","40399","120","yes","1024"
"2","1600","-150","32","100","100","343","343","white","no","xpyriment","legacy","legacy","0","uniform","1","1","z","0","0","0","0","0","120","0","NA","120","120","0","120","120","120","120","0","11/28/15 14:15:18","Default description","no","mono","no","18","black","Ok","768","legacy","W:/school/cognetive-modeling/simulationdata/subject-2423529.csv","xpyriment","Interactive Ising","3.0.3","0","z","m","NA","z","343","36678","NA","343","legacy","experiment","2423529","odd","legacy","59231","572204","NA","NA","NA","576794","535526","NA","574850","576450","1605","576794","573350","573349","576450","1605","CogMod 2015 Experiment","1","343","1","yes","1024"
"2","1600","150","32","100","100","295","295","white","no","xpyriment","legacy","legacy","0","uniform","1","1","m","0","0","0","0","0","121","0","NA","121","121","0","121","121","121","121","0","11/28/15 14:15:18","Default description","no","mono","no","18","black","Ok","768","legacy","W:/school/cognetive-modeling/simulationdata/subject-2423529.csv","xpyriment","Interactive Ising","3.0.3","0","m","m","NA","m","248","36678","NA","248","legacy","experiment","2423529","odd","legacy","59231","572204","NA","NA","NA","581304","535526","NA","579455","581055","1605","581304","577955","577955","581055","1605","CogMod 2015 Experiment","2","591","2","yes","1024"
"2","1600","-150","32","100","100","281","281","white","no","xpyriment","legacy","legacy","0","uniform","1","1","z","0","0","0","0","0","122","0","NA","122","122","0","122","122","122","122","0","11/28/15 14:15:18","Default description","no","mono","no","18","black","Ok","768","legacy","W:/school/cognetive-modeling/simulationdata/subject-2423529.csv","xpyriment","Interactive Ising","3.0.3","0","z","m","NA","z","254","36678","NA","254","legacy","experiment","2423529","odd","legacy","59231","572204","NA","NA","NA","585748","535526","NA","583893","585493","1605","585748","582392","582392","585493","1605","CogMod 2015 Experiment","3","845","3","yes","1024"
"2","1200","-150","16","100","100","297","297","white","no","xpyriment","legacy","legacy","0","uniform","1","1","z","0","0","0","0","0","123","0","NA","123","123","0","123","123","123","123","0","11/28/15 14:15:18","Default description","no","mono","no","18","black","Ok","768","legacy","W:/school/cognetive-modeling/simulationdata/subject-2423529.csv","xpyriment","Interactive Ising","3.0.3","0","z","m","NA","z","343","36678","NA","343","legacy","experiment","2423529","odd","legacy","59231","572204","NA","NA","NA","589804","535526","NA","588260","589460","1605","589804","586760","586760","589460","1605","CogMod 2015 Experiment","4","1188","4","yes","1024"
"2","1600","150","32","100","100","292","292","white","no","xpyriment","legacy","legacy","0","uniform","1","1","m","0","0","0","0","0","124","0","NA","124","124","0","124","124","124","124","0","11/28/15 14:15:18","Default description","no","mono","no","18","black","Ok","768","legacy","W:/school/cognetive-modeling/simulationdata/subject-2423529.csv","xpyriment","Interactive Ising","3.0.3","0","m","m","NA","m","274","36678","NA","274","legacy","experiment","2423529","odd","legacy","59231","572204","NA","NA","NA","594271","535526","NA","592396","593996","1605","594271","590896","590896","593996","1605","CogMod 2015 Experiment","5","1462","5","yes","1024"
"2","1600","-150","32","100","100","287","287","white","no","xpyriment","legacy","legacy","0","uniform","1","1","z","0","0","0","0","0","125","0","NA","125","125","0","125","125","125","125","0","11/28/15 14:15:18","Default description","no","mono","no","18","black","Ok","768","legacy","W:/school/cognetive-modeling/simulationdata/subject-2423529.csv","xpyriment","Interactive Ising","3.0.3","0","z","m","NA","z","263","36678","NA","263","legacy","experiment","2423529","odd","legacy","59231","572204","NA","NA","NA","598832","535526","NA","596968","598568","1605","598832","595467","595465","598568","1605","CogMod 2015 Experiment","6","1725","6","yes","1024"
"2","1200","-150","16","100","100","290","290","white","no","xpyriment","legacy","legacy","0","uniform","1","1","z","0","0","0","0","0","126","0","NA","126","126","0","126","126","126","126","0","11/28/15 14:15:18","Default description","no","mono","no","18","black","Ok","768","legacy","W:/school/cognetive-modeling/simulationdata/subject-2423529.csv","xpyriment","Interactive Ising","3.0.3","0","z","m","NA","z","310","36678","NA","310","legacy","experiment","2423529","odd","legacy","59231","572204","NA","NA","NA","603018","535526","NA","601507","602707","1605","603018","600007","600007","602707","1605","CogMod 2015 Experiment","7","2035","7","yes","1024"
"2","800","-150","8","100","100","290","290","white","no","xpyriment","legacy","legacy","0","uniform","1","1","z","0","0","0","0","0","127","0","NA","127","127","0","127","127","127","127","0","11/28/15 14:15:18","Default description","no","mono","no","18","black","Ok","768","legacy","W:/school/cognetive-modeling/simulationdata/subject-2423529.csv","xpyriment","Interactive Ising","3.0.3","0","z","m","NA","z","285","36678","NA","285","legacy","experiment","2423529","odd","legacy","59231","572204","NA","NA","NA","606824","535526","NA","605738","606538","1605","606824","604238","604237","606538","1605","CogMod 2015 Experiment","8","2320","8","yes","1024"
"2","1200","150","16","100","100","299","299","white","no","xpyriment","legacy","legacy","0","uniform","1","1","m","0","0","0","0","0","128","0","NA","128","128","0","128","128","128","128","0","11/28/15 14:15:18","Default description","no","mono","no","18","black","Ok","768","legacy","W:/school/cognetive-modeling/simulationdata/subject-2423529.csv","xpyriment","Interactive Ising","3.0.3","0","m","m","NA","m","379","36678","NA","379","legacy","experiment","2423529","odd","legacy","59231","572204","NA","NA","NA","611142","535526","NA","609562","610762","1605","611142","608062","608062","610762","1605","CogMod 2015 Experiment","9","2699","9","yes","1024"
"2","1600","-150","32","100","100","299","299","white","no","xpyriment","legacy","legacy","0","uniform","1","1","z","0","0","0","0","0","129","0","NA","129","129","0","129","129","129","129","0","11/28/15 14:15:18","Default description","no","mono","no","18","black","Ok","768","legacy","W:/school/cognetive-modeling/simulationdata/subject-2423529.csv","xpyriment","Interactive Ising","3.0.3","0","z","m","NA","z","292","36678","NA","292","legacy","experiment","2423529","odd","legacy","59231","572204","NA","NA","NA","615733","535526","NA","613840","615440","1605","615733","612340","612340","615440","1605","CogMod 2015 Experiment","10","2991","10","yes","1024"
"2","1600","-150","32","100","100","297","297","white","no","xpyriment","legacy","legacy","0","uniform","1","1","z","0","0","0","0","0","130","0","NA","130","130","0","130","130","130","130","0","11/28/15 14:15:18","Default description","no","mono","no","18","black","Ok","768","legacy","W:/school/cognetive-modeling/simulationdata/subject-2423529.csv","xpyriment","Interactive Ising","3.0.3","0","z","m","NA","z","285","36678","NA","285","legacy","experiment","2423529","odd","legacy","59231","572204","NA","NA","NA","620086","535526","NA","618200","619800","1605","620086","616700","616699","619800","1605","CogMod 2015 Experiment","11","3276","11","yes","1024"
"2","1200","150","16","100","100","295","295","white","no","xpyriment","legacy","legacy","0","uniform","1","1","m","0","0","0","0","0","131","0","NA","131","131","0","131","131","131","131","0","11/28/15 14:15:18","Default description","no","mono","no","18","black","Ok","768","legacy","W:/school/cognetive-modeling/simulationdata/subject-2423529.csv","xpyriment","Interactive Ising","3.0.3","0","m","m","NA","m","273","36678","NA","273","legacy","experiment","2423529","odd","legacy","59231","572204","NA","NA","NA","624086","535526","NA","622612","623812","1605","624086","621112","621111","623812","1605","CogMod 2015 Experiment","12","3549","12","yes","1024"
"2","800","150","8","100","100","313","313","white","no","xpyriment","legacy","legacy","0","uniform","1","1","m","0","0","0","0","0","132","0","NA","132","132","0","132","132","132","132","0","11/28/15 14:15:18","Default description","no","mono","no","18","black","Ok","768","legacy","W:/school/cognetive-modeling/simulationdata/subject-2423529.csv","xpyriment","Interactive Ising","3.0.3","0","m","m","NA","m","531","36678","NA","531","legacy","experiment","2423529","odd","legacy","59231","572204","NA","NA","NA","628081","535526","NA","626749","627549","1605","628081","625249","625249","627549","1605","CogMod 2015 Experiment","13","4080","13","yes","1024"
"2","800","150","8","100","100","313","313","white","no","xpyriment","legacy","legacy","0","uniform","1","1","m","0","0","0","0","0","133","0","NA","133","133","0","133","133","133","133","0","11/28/15 14:15:18","Default description","no","mono","no","18","black","Ok","768","legacy","W:/school/cognetive-modeling/simulationdata/subject-2423529.csv","xpyriment","Interactive Ising","3.0.3","0","m","m","NA","m","313","36678","NA","313","legacy","experiment","2423529","odd","legacy","59231","572204","NA","NA","NA","631766","535526","NA","630652","631452","1605","631766","629152","629151","631452","1605","CogMod 2015 Experiment","14","4393","14","yes","1024"
"2","1600","150","32","100","100","311","311","white","no","xpyriment","legacy","legacy","0","uniform","1","1","m","0","0","0","0","0","134","0","NA","134","134","0","134","134","134","134","0","11/28/15 14:15:18","Default description","no","mono","no","18","black","Ok","768","legacy","W:/school/cognetive-modeling/simulationdata/subject-2423529.csv","xpyriment","Interactive Ising","3.0.3","0","m","m","NA","m","286","36678","NA","286","legacy","experiment","2423529","odd","legacy","59231","572204","NA","NA","NA","636301","535526","NA","634414","636014","1605","636301","632914","632914","636014","1605","CogMod 2015 Experiment","15","4679","15","yes","1024"
"2","1200","150","16","100","100","311","311","white","no","xpyriment","legacy","legacy","0","uniform","1","1","m","0","0","0","0","0","135","0","NA","135","135","0","135","135","135","135","0","11/28/15 14:15:18","Default description","no","mono","no","18","black","Ok","768","legacy","W:/school/cognetive-modeling/simulationdata/subject-2423529.csv","xpyriment","Interactive Ising","3.0.3","0","m","m","NA","m","297","36678","NA","297","legacy","experiment","2423529","odd","legacy","59231","572204","NA","NA","NA","640400","535526","NA","638902","640102","1605","640400","637402","637401","640102","1605","CogMod 2015 Experiment","16","4976","16","yes","1024"
"2","1200","-150","16","100","100","309","309","white","no","xpyriment","legacy","legacy","0","uniform","1","1","z","0","0","0","0","0","136","0","NA","136","136","0","136","136","136","136","0","11/28/15 14:15:18","Default description","no","mono","no","18","black","Ok","768","legacy","W:/school/cognetive-modeling/simulationdata/subject-2423529.csv","xpyriment","Interactive Ising","3.0.3","0","z","m","NA","z","282","36678","NA","282","legacy","experiment","2423529","odd","legacy","59231","572204","NA","NA","NA","644545","535526","NA","643062","644262","1605","644545","641562","641562","644262","1605","CogMod 2015 Experiment","17","5258","17","yes","1024"
"2","1600","-150","32","100","100","308","308","white","no","xpyriment","legacy","legacy","0","uniform","1","1","z","0","0","0","0","0","137","0","NA","137","137","0","137","137","137","137","0","11/28/15 14:15:18","Default description","no","mono","no","18","black","Ok","768","legacy","W:/school/cognetive-modeling/simulationdata/subject-2423529.csv","xpyriment","Interactive Ising","3.0.3","0","z","m","NA","z","293","36678","NA","293","legacy","experiment","2423529","odd","legacy","59231","572204","NA","NA","NA","649097","535526","NA","647203","648803","1605","649097","645703","645702","648803","1605","CogMod 2015 Experiment","18","5551","18","yes","1024"
"2","1600","150","32","100","100","311","311","white","no","xpyriment","legacy","legacy","0","uniform","1","1","m","0","0","0","0","0","138","0","NA","138","138","0","138","138","138","138","0","11/28/15 14:15:18","Default description","no","mono","no","18","black","Ok","768","legacy","W:/school/cognetive-modeling/simulationdata/subject-2423529.csv","xpyriment","Interactive Ising","3.0.3","0","m","m","NA","m","374","36678","NA","374","legacy","experiment","2423529","odd","legacy","59231","572204","NA","NA","NA","653727","535526","NA","651752","653352","1605","653727","650252","650252","653352","1605","CogMod 2015 Experiment","19","5925","19","yes","1024"
"2","800","-150","8","100","100","310","310","white","no","xpyriment","legacy","legacy","0","uniform","1","1","z","0","0","0","0","0","139","0","NA","139","139","0","139","139","139","139","0","11/28/15 14:15:18","Default description","no","mono","no","18","black","Ok","768","legacy","W:/school/cognetive-modeling/simulationdata/subject-2423529.csv","xpyriment","Interactive Ising","3.0.3","0","z","m","NA","z","286","36678","NA","286","legacy","experiment","2423529","odd","legacy","59231","572204","NA","NA","NA","657425","535526","NA","656338","657138","1605","657425","654838","654837","657138","1605","CogMod 2015 Experiment","20","6211","20","yes","1024"
"2","1600","-150","32","100","100","311","311","white","no","xpyriment","legacy","legacy","0","uniform","1","1","z","0","0","0","0","0","140","0","NA","140","140","0","140","140","140","140","0","11/28/15 14:15:18","Default description","no","mono","no","18","black","Ok","768","legacy","W:/school/cognetive-modeling/simulationdata/subject-2423529.csv","xpyriment","Interactive Ising","3.0.3","0","z","m","NA","z","322","36678","NA","322","legacy","experiment","2423529","odd","legacy","59231","572204","NA","NA","NA","661995","535526","NA","660072","661672","1605","661995","658571","658571","661672","1605","CogMod 2015 Experiment","21","6533","21","yes","1024"
"2","1200","150","16","100","100","310","310","white","no","xpyriment","legacy","legacy","0","uniform","1","1","m","0","0","0","0","0","141","0","NA","141","141","0","141","141","141","141","0","11/28/15 14:15:18","Default description","no","mono","no","18","black","Ok","768","legacy","W:/school/cognetive-modeling/simulationdata/subject-2423529.csv","xpyriment","Interactive Ising","3.0.3","0","m","m","NA","m","295","36678","NA","295","legacy","experiment","2423529","odd","legacy","59231","572204","NA","NA","NA","666065","535526","NA","664569","665769","1605","666065","663069","663068","665769","1605","CogMod 2015 Experiment","22","6828","22","yes","1024"
"2","1200","150","16","100","100","310","310","white","no","xpyriment","legacy","legacy","0","uniform","1","1","m","0","0","0","0","0","142","0","NA","142","142","0","142","142","142","142","0","11/28/15 14:15:18","Default description","no","mono","no","18","black","Ok","768","legacy","W:/school/cognetive-modeling/simulationdata/subject-2423529.csv","xpyriment","Interactive Ising","3.0.3","0","m","m","NA","m","312","36678","NA","312","legacy","experiment","2423529","odd","legacy","59231","572204","NA","NA","NA","670204","535526","NA","668691","669891","1605","670204","667191","667190","669891","1605","CogMod 2015 Experiment","23","7140","23","yes","1024"
"2","1600","150","32","100","100","310","310","white","no","xpyriment","legacy","legacy","0","uniform","1","1","m","0","0","0","0","0","143","0","NA","143","143","0","143","143","143","143","0","11/28/15 14:15:18","Default description","no","mono","no","18","black","Ok","768","legacy","W:/school/cognetive-modeling/simulationdata/subject-2423529.csv","xpyriment","Interactive Ising","3.0.3","0","m","m","NA","m","308","36678","NA","308","legacy","experiment","2423529","odd","legacy","59231","572204","NA","NA","NA","674763","535526","NA","672854","674454","1605","674763","671354","671353","674454","1605","CogMod 2015 Experiment","24","7448","24","yes","1024"
"2","1600","-150","32","100","100","309","309","white","no","xpyriment","legacy","legacy","0","uniform","1","1","z","0","0","0","0","0","144","0","NA","144","144","0","144","144","144","144","0","11/28/15 14:15:18","Default description","no","mono","no","18","black","Ok","768","legacy","W:/school/cognetive-modeling/simulationdata/subject-2423529.csv","xpyriment","Interactive Ising","3.0.3","0","z","m","NA","z","282","36678","NA","282","legacy","experiment","2423529","odd","legacy","59231","572204","NA","NA","NA","679299","535526","NA","677416","679016","1605","679299","675916","675915","679016","1605","CogMod 2015 Experiment","25","7730","25","yes","1024"
"2","1200","-150","16","100","100","308","308","white","no","xpyriment","legacy","legacy","0","uniform","1","1","z","0","0","0","0","0","145","0","NA","145","145","0","145","145","145","145","0","11/28/15 14:15:18","Default description","no","mono","no","18","black","Ok","768","legacy","W:/school/cognetive-modeling/simulationdata/subject-2423529.csv","xpyriment","Interactive Ising","3.0.3","0","z","m","NA","z","301","36678","NA","301","legacy","experiment","2423529","odd","legacy","59231","572204","NA","NA","NA","683487","535526","NA","681985","683185","1605","683487","680485","680484","683185","1605","CogMod 2015 Experiment","26","8031","26","yes","1024"
"2","1200","150","16","100","100","315","315","white","no","xpyriment","legacy","legacy","0","uniform","1","1","m","0","0","0","0","0","146","0","NA","146","146","0","146","146","146","146","0","11/28/15 14:15:18","Default description","no","mono","no","18","black","Ok","768","legacy","W:/school/cognetive-modeling/simulationdata/subject-2423529.csv","xpyriment","Interactive Ising","3.0.3","0","m","m","NA","m","474","36678","NA","474","legacy","experiment","2423529","odd","legacy","59231","572204","NA","NA","NA","687630","535526","NA","685955","687155","1605","687630","684455","684455","687155","1605","CogMod 2015 Experiment","27","8505","27","yes","1024"
"2","1600","-150","32","100","100","312","312","white","no","xpyriment","legacy","legacy","0","uniform","1","1","z","0","0","0","0","0","147","0","NA","147","147","0","147","147","147","147","0","11/28/15 14:15:18","Default description","no","mono","no","18","black","Ok","768","legacy","W:/school/cognetive-modeling/simulationdata/subject-2423529.csv","xpyriment","Interactive Ising","3.0.3","0","z","m","NA","z","252","36678","NA","252","legacy","experiment","2423529","odd","legacy","59231","572204","NA","NA","NA","691992","535526","NA","690139","691739","1605","691992","688639","688639","691739","1605","CogMod 2015 Experiment","28","8757","28","yes","1024"
