"Block","Foreperiod","Location","NumRep","acc","accuracy","average_response_time","avg_rt","background","bidi","canvas_backend","clock_backend","color_backend","compensation","coordinates","correct","correct_GetResponse","correct_response","count_Block_1","count_Block_2","count_Block_3","count_Block_4","count_Block_5","count_ClearScreen","count_Feedback","count_Feedback_Final","count_Fixation","count_GetResponse","count_Instructions1","count_LogData","count_PreTrialWait","count_SingleTrial","count_Stimulus","count_experiment","datetime","description","font_bold","font_family","font_italic","font_size","foreground","form_response","height","keyboard_backend","logfile","mouse_backend","opensesame_codename","opensesame_version","repeat_cycle","response","response_Feedback","response_Feedback_Final","response_GetResponse","response_time","response_time_Feedback","response_time_Feedback_Final","response_time_GetResponse","sampler_backend","start","subject_nr","subject_parity","synth_backend","time_Block_1","time_Block_2","time_Block_3","time_Block_4","time_Block_5","time_ClearScreen","time_Feedback","time_Feedback_Final","time_Fixation","time_GetResponse","time_Instructions1","time_LogData","time_PreTrialWait","time_SingleTrial","time_Stimulus","time_experiment","title","total_correct","total_response_time","total_responses","uniform_coordinates","width"
"1","1600","150","15","100","100","854","854","white","no","xpyriment","legacy","legacy","0","uniform","1","1","m","0","0","0","0","0","0","NA","NA","0","0","0","0","0","0","0","0","11/29/15 20:59:06","Default description","no","mono","no","18","black","Ok","768","legacy","D:/Studie/Kunstmatige intelligentie/Master/Cognitive modeling/Experiment/subject-1861948.csv","xpyriment","Interactive Ising","3.0.4","0","m","NA","NA","m","854","NA","NA","854","legacy","experiment","1861948","even","legacy","80473","NA","NA","NA","NA","84989","NA","NA","82505","84123","2714","84990","80989","80965","84123","2714","CogMod 2015 Experiment","1","854","1","yes","1024"
"1","1200","150","15","100","100","576","576","white","no","xpyriment","legacy","legacy","0","uniform","1","1","m","0","0","0","0","0","1","NA","NA","1","1","0","1","1","1","1","0","11/29/15 20:59:06","Default description","no","mono","no","18","black","Ok","768","legacy","D:/Studie/Kunstmatige intelligentie/Master/Cognitive modeling/Experiment/subject-1861948.csv","xpyriment","Interactive Ising","3.0.4","0","m","NA","NA","m","298","NA","NA","298","legacy","experiment","1861948","even","legacy","80473","NA","NA","NA","NA","89006","NA","NA","87473","88690","2714","89006","85955","85938","88689","2714","CogMod 2015 Experiment","2","1152","2","yes","1024"
"1","400","-150","15","100","100","521","521","white","no","xpyriment","legacy","legacy","0","uniform","1","1","z","0","0","0","0","0","2","NA","NA","2","2","0","2","2","2","2","0","11/29/15 20:59:06","Default description","no","mono","no","18","black","Ok","768","legacy","D:/Studie/Kunstmatige intelligentie/Master/Cognitive modeling/Experiment/subject-1861948.csv","xpyriment","Interactive Ising","3.0.4","0","z","NA","NA","z","413","NA","NA","413","legacy","experiment","1861948","even","legacy","80473","NA","NA","NA","NA","91939","NA","NA","91090","91506","2714","91939","89572","89561","91505","2714","CogMod 2015 Experiment","3","1565","3","yes","1024"
"1","400","150","15","100","100","462","462","white","no","xpyriment","legacy","legacy","0","uniform","1","1","m","0","0","0","0","0","3","NA","NA","3","3","0","3","3","3","3","0","11/29/15 20:59:06","Default description","no","mono","no","18","black","Ok","768","legacy","D:/Studie/Kunstmatige intelligentie/Master/Cognitive modeling/Experiment/subject-1861948.csv","xpyriment","Interactive Ising","3.0.4","0","m","NA","NA","m","285","NA","NA","285","legacy","experiment","1861948","even","legacy","80473","NA","NA","NA","NA","94772","NA","NA","94057","94473","2714","94773","92540","92526","94473","2714","CogMod 2015 Experiment","4","1850","4","yes","1024"
"1","400","150","15","100","100","430","430","white","no","xpyriment","legacy","legacy","0","uniform","1","1","m","0","0","0","0","0","4","NA","NA","4","4","0","4","4","4","4","0","11/29/15 20:59:06","Default description","no","mono","no","18","black","Ok","768","legacy","D:/Studie/Kunstmatige intelligentie/Master/Cognitive modeling/Experiment/subject-1861948.csv","xpyriment","Interactive Ising","3.0.4","0","m","NA","NA","m","304","NA","NA","304","legacy","experiment","1861948","even","legacy","80473","NA","NA","NA","NA","97639","NA","NA","96906","97323","2714","97639","95389","95375","97323","2714","CogMod 2015 Experiment","5","2154","5","yes","1024"
"1","400","-150","15","100","100","407","407","white","no","xpyriment","legacy","legacy","0","uniform","1","1","z","0","0","0","0","0","5","NA","NA","5","5","0","5","5","5","5","0","11/29/15 20:59:06","Default description","no","mono","no","18","black","Ok","768","legacy","D:/Studie/Kunstmatige intelligentie/Master/Cognitive modeling/Experiment/subject-1861948.csv","xpyriment","Interactive Ising","3.0.4","0","z","NA","NA","z","288","NA","NA","288","legacy","experiment","1861948","even","legacy","80473","NA","NA","NA","NA","100540","NA","NA","99823","100240","2714","100540","98306","98296","100240","2714","CogMod 2015 Experiment","6","2442","6","yes","1024"
"1","400","150","15","100","100","392","392","white","no","xpyriment","legacy","legacy","0","uniform","1","1","m","0","0","0","0","0","6","NA","NA","6","6","0","6","6","6","6","0","11/29/15 20:59:06","Default description","no","mono","no","18","black","Ok","768","legacy","D:/Studie/Kunstmatige intelligentie/Master/Cognitive modeling/Experiment/subject-1861948.csv","xpyriment","Interactive Ising","3.0.4","0","m","NA","NA","m","307","NA","NA","307","legacy","experiment","1861948","even","legacy","80473","NA","NA","NA","NA","103406","NA","NA","102673","103090","2714","103406","101156","101134","103089","2714","CogMod 2015 Experiment","7","2749","7","yes","1024"
"1","1200","-150","15","100","100","388","388","white","no","xpyriment","legacy","legacy","0","uniform","1","1","z","0","0","0","0","0","7","NA","NA","7","7","0","7","7","7","7","0","11/29/15 20:59:06","Default description","no","mono","no","18","black","Ok","768","legacy","D:/Studie/Kunstmatige intelligentie/Master/Cognitive modeling/Experiment/subject-1861948.csv","xpyriment","Interactive Ising","3.0.4","0","z","NA","NA","z","362","NA","NA","362","legacy","experiment","1861948","even","legacy","80473","NA","NA","NA","NA","107090","NA","NA","105490","106707","2714","107090","103972","103961","106706","2714","CogMod 2015 Experiment","8","3111","8","yes","1024"
"1","400","150","15","100","100","384","384","white","no","xpyriment","legacy","legacy","0","uniform","1","1","m","0","0","0","0","0","8","NA","NA","8","8","0","8","8","8","8","0","11/29/15 20:59:06","Default description","no","mono","no","18","black","Ok","768","legacy","D:/Studie/Kunstmatige intelligentie/Master/Cognitive modeling/Experiment/subject-1861948.csv","xpyriment","Interactive Ising","3.0.4","0","m","NA","NA","m","346","NA","NA","346","legacy","experiment","1861948","even","legacy","80473","NA","NA","NA","NA","109990","NA","NA","109207","109623","2714","109990","107689","107675","109623","2714","CogMod 2015 Experiment","9","3457","9","yes","1024"
"1","400","-150","15","100","100","375","375","white","no","xpyriment","legacy","legacy","0","uniform","1","1","z","0","0","0","0","0","9","NA","NA","9","9","0","9","9","9","9","0","11/29/15 20:59:06","Default description","no","mono","no","18","black","Ok","768","legacy","D:/Studie/Kunstmatige intelligentie/Master/Cognitive modeling/Experiment/subject-1861948.csv","xpyriment","Interactive Ising","3.0.4","0","z","NA","NA","z","298","NA","NA","298","legacy","experiment","1861948","even","legacy","80473","NA","NA","NA","NA","112856","NA","NA","112123","112540","2714","112856","110606","110588","112540","2714","CogMod 2015 Experiment","10","3755","10","yes","1024"
"1","1600","150","15","100","100","369","369","white","no","xpyriment","legacy","legacy","0","uniform","1","1","m","0","0","0","0","0","10","NA","NA","10","10","0","10","10","10","10","0","11/29/15 20:59:06","Default description","no","mono","no","18","black","Ok","768","legacy","D:/Studie/Kunstmatige intelligentie/Master/Cognitive modeling/Experiment/subject-1861948.csv","xpyriment","Interactive Ising","3.0.4","0","m","NA","NA","m","304","NA","NA","304","legacy","experiment","1861948","even","legacy","80473","NA","NA","NA","NA","116923","NA","NA","114990","116607","2714","116923","113473","113445","116607","2714","CogMod 2015 Experiment","11","4059","11","yes","1024"
"1","400","-150","15","100","100","363","363","white","no","xpyriment","legacy","legacy","0","uniform","1","1","z","0","0","0","0","0","11","NA","NA","11","11","0","11","11","11","11","0","11/29/15 20:59:06","Default description","no","mono","no","18","black","Ok","768","legacy","D:/Studie/Kunstmatige intelligentie/Master/Cognitive modeling/Experiment/subject-1861948.csv","xpyriment","Interactive Ising","3.0.4","0","z","NA","NA","z","306","NA","NA","306","legacy","experiment","1861948","even","legacy","80473","NA","NA","NA","NA","119790","NA","NA","119057","119474","2714","119790","117540","117515","119473","2714","CogMod 2015 Experiment","12","4365","12","yes","1024"
"1","400","150","15","100","100","358","358","white","no","xpyriment","legacy","legacy","0","uniform","1","1","m","0","0","0","0","0","12","NA","NA","12","12","0","12","12","12","12","0","11/29/15 20:59:06","Default description","no","mono","no","18","black","Ok","768","legacy","D:/Studie/Kunstmatige intelligentie/Master/Cognitive modeling/Experiment/subject-1861948.csv","xpyriment","Interactive Ising","3.0.4","0","m","NA","NA","m","295","NA","NA","295","legacy","experiment","1861948","even","legacy","80473","NA","NA","NA","NA","122640","NA","NA","121907","122324","2714","122640","120390","120375","122324","2714","CogMod 2015 Experiment","13","4660","13","yes","1024"
"1","1600","-150","15","100","100","355","355","white","no","xpyriment","legacy","legacy","0","uniform","1","1","z","0","0","0","0","0","13","NA","NA","13","13","0","13","13","13","13","0","11/29/15 20:59:06","Default description","no","mono","no","18","black","Ok","768","legacy","D:/Studie/Kunstmatige intelligentie/Master/Cognitive modeling/Experiment/subject-1861948.csv","xpyriment","Interactive Ising","3.0.4","0","z","NA","NA","z","317","NA","NA","317","legacy","experiment","1861948","even","legacy","80473","NA","NA","NA","NA","126707","NA","NA","124757","126374","2714","126707","123240","123224","126374","2714","CogMod 2015 Experiment","14","4977","14","yes","1024"
"1","1600","150","15","100","100","356","356","white","no","xpyriment","legacy","legacy","0","uniform","1","1","m","0","0","0","0","0","14","NA","NA","14","14","0","14","14","14","14","0","11/29/15 20:59:06","Default description","no","mono","no","18","black","Ok","768","legacy","D:/Studie/Kunstmatige intelligentie/Master/Cognitive modeling/Experiment/subject-1861948.csv","xpyriment","Interactive Ising","3.0.4","0","m","NA","NA","m","369","NA","NA","369","legacy","experiment","1861948","even","legacy","80473","NA","NA","NA","NA","130840","NA","NA","128841","130457","2714","130840","127324","127302","130457","2714","CogMod 2015 Experiment","15","5346","15","yes","1024"
"1","800","-150","15","100","100","350","350","white","no","xpyriment","legacy","legacy","0","uniform","1","1","z","0","0","0","0","0","15","NA","NA","15","15","0","15","15","15","15","0","11/29/15 20:59:06","Default description","no","mono","no","18","black","Ok","768","legacy","D:/Studie/Kunstmatige intelligentie/Master/Cognitive modeling/Experiment/subject-1861948.csv","xpyriment","Interactive Ising","3.0.4","0","z","NA","NA","z","261","NA","NA","261","legacy","experiment","1861948","even","legacy","80473","NA","NA","NA","NA","134057","NA","NA","132957","133774","2714","134057","131440","131432","133774","2714","CogMod 2015 Experiment","16","5607","16","yes","1024"
"1","800","-150","15","100","100","347","347","white","no","xpyriment","legacy","legacy","0","uniform","1","1","z","0","0","0","0","0","16","NA","NA","16","16","0","16","16","16","16","0","11/29/15 20:59:06","Default description","no","mono","no","18","black","Ok","768","legacy","D:/Studie/Kunstmatige intelligentie/Master/Cognitive modeling/Experiment/subject-1861948.csv","xpyriment","Interactive Ising","3.0.4","0","z","NA","NA","z","297","NA","NA","297","legacy","experiment","1861948","even","legacy","80473","NA","NA","NA","NA","137324","NA","NA","136191","137008","2714","137324","134674","134654","137007","2714","CogMod 2015 Experiment","17","5904","17","yes","1024"
"1","1600","150","15","100","100","349","349","white","no","xpyriment","legacy","legacy","0","uniform","1","1","m","0","0","0","0","0","17","NA","NA","17","17","0","17","17","17","17","0","11/29/15 20:59:06","Default description","no","mono","no","18","black","Ok","768","legacy","D:/Studie/Kunstmatige intelligentie/Master/Cognitive modeling/Experiment/subject-1861948.csv","xpyriment","Interactive Ising","3.0.4","0","m","NA","NA","m","382","NA","NA","382","legacy","experiment","1861948","even","legacy","80473","NA","NA","NA","NA","141457","NA","NA","139441","141057","2714","141457","137924","137914","141057","2714","CogMod 2015 Experiment","18","6286","18","yes","1024"
"1","800","150","15","100","100","349","349","white","no","xpyriment","legacy","legacy","0","uniform","1","1","m","0","0","0","0","0","18","NA","NA","18","18","0","18","18","18","18","0","11/29/15 20:59:06","Default description","no","mono","no","18","black","Ok","768","legacy","D:/Studie/Kunstmatige intelligentie/Master/Cognitive modeling/Experiment/subject-1861948.csv","xpyriment","Interactive Ising","3.0.4","0","m","NA","NA","m","350","NA","NA","350","legacy","experiment","1861948","even","legacy","80473","NA","NA","NA","NA","144757","NA","NA","143574","144391","2714","144757","142057","142045","144391","2714","CogMod 2015 Experiment","19","6636","19","yes","1024"
"1","1200","150","15","100","100","348","348","white","no","xpyriment","legacy","legacy","0","uniform","1","1","m","0","0","0","0","0","19","NA","NA","19","19","0","19","19","19","19","0","11/29/15 20:59:06","Default description","no","mono","no","18","black","Ok","768","legacy","D:/Studie/Kunstmatige intelligentie/Master/Cognitive modeling/Experiment/subject-1861948.csv","xpyriment","Interactive Ising","3.0.4","0","m","NA","NA","m","329","NA","NA","329","legacy","experiment","1861948","even","legacy","80473","NA","NA","NA","NA","148440","NA","NA","146874","148091","2714","148440","145357","145345","148090","2714","CogMod 2015 Experiment","20","6965","20","yes","1024"
"1","800","-150","15","100","100","346","346","white","no","xpyriment","legacy","legacy","0","uniform","1","1","z","0","0","0","0","0","20","NA","NA","20","20","0","20","20","20","20","0","11/29/15 20:59:06","Default description","no","mono","no","18","black","Ok","768","legacy","D:/Studie/Kunstmatige intelligentie/Master/Cognitive modeling/Experiment/subject-1861948.csv","xpyriment","Interactive Ising","3.0.4","0","z","NA","NA","z","314","NA","NA","314","legacy","experiment","1861948","even","legacy","80473","NA","NA","NA","NA","151741","NA","NA","150591","151408","2714","151741","149074","149053","151407","2714","CogMod 2015 Experiment","21","7279","21","yes","1024"
"1","1600","150","15","100","100","345","345","white","no","xpyriment","legacy","legacy","0","uniform","1","1","m","0","0","0","0","0","21","NA","NA","21","21","0","21","21","21","21","0","11/29/15 20:59:06","Default description","no","mono","no","18","black","Ok","768","legacy","D:/Studie/Kunstmatige intelligentie/Master/Cognitive modeling/Experiment/subject-1861948.csv","xpyriment","Interactive Ising","3.0.4","0","m","NA","NA","m","320","NA","NA","320","legacy","experiment","1861948","even","legacy","80473","NA","NA","NA","NA","155808","NA","NA","153858","155475","2714","155808","152341","152321","155474","2714","CogMod 2015 Experiment","22","7599","22","yes","1024"
"1","1600","-150","15","100","100","344","344","white","no","xpyriment","legacy","legacy","0","uniform","1","1","z","0","0","0","0","0","22","NA","NA","22","22","0","22","22","22","22","0","11/29/15 20:59:06","Default description","no","mono","no","18","black","Ok","768","legacy","D:/Studie/Kunstmatige intelligentie/Master/Cognitive modeling/Experiment/subject-1861948.csv","xpyriment","Interactive Ising","3.0.4","0","z","NA","NA","z","329","NA","NA","329","legacy","experiment","1861948","even","legacy","80473","NA","NA","NA","NA","159858","NA","NA","157891","159508","2714","159858","156374","156366","159508","2714","CogMod 2015 Experiment","23","7928","23","yes","1024"
"1","1200","-150","15","100","100","340","340","white","no","xpyriment","legacy","legacy","0","uniform","1","1","z","0","0","0","0","0","23","NA","NA","23","23","0","23","23","23","23","0","11/29/15 20:59:06","Default description","no","mono","no","18","black","Ok","768","legacy","D:/Studie/Kunstmatige intelligentie/Master/Cognitive modeling/Experiment/subject-1861948.csv","xpyriment","Interactive Ising","3.0.4","0","z","NA","NA","z","239","NA","NA","239","legacy","experiment","1861948","even","legacy","80473","NA","NA","NA","NA","163458","NA","NA","161992","163208","2714","163458","160475","160450","163208","2714","CogMod 2015 Experiment","24","8167","24","yes","1024"
"1","1200","-150","15","100","100","337","337","white","no","xpyriment","legacy","legacy","0","uniform","1","1","z","0","0","0","0","0","24","NA","NA","24","24","0","24","24","24","24","0","11/29/15 20:59:06","Default description","no","mono","no","18","black","Ok","768","legacy","D:/Studie/Kunstmatige intelligentie/Master/Cognitive modeling/Experiment/subject-1861948.csv","xpyriment","Interactive Ising","3.0.4","0","z","NA","NA","z","280","NA","NA","280","legacy","experiment","1861948","even","legacy","80473","NA","NA","NA","NA","167108","NA","NA","165591","166808","2714","167108","164074","164066","166808","2714","CogMod 2015 Experiment","25","8447","25","yes","1024"
"1","800","150","15","100","100","339","339","white","no","xpyriment","legacy","legacy","0","uniform","1","1","m","0","0","0","0","0","25","NA","NA","25","25","0","25","25","25","25","0","11/29/15 20:59:06","Default description","no","mono","no","18","black","Ok","768","legacy","D:/Studie/Kunstmatige intelligentie/Master/Cognitive modeling/Experiment/subject-1861948.csv","xpyriment","Interactive Ising","3.0.4","0","m","NA","NA","m","378","NA","NA","378","legacy","experiment","1861948","even","legacy","80473","NA","NA","NA","NA","170441","NA","NA","169225","170042","2714","170441","167708","167698","170041","2714","CogMod 2015 Experiment","26","8825","26","yes","1024"
"1","1600","-150","15","100","100","336","336","white","no","xpyriment","legacy","legacy","0","uniform","1","1","z","0","0","0","0","0","26","NA","NA","26","26","0","26","26","26","26","0","11/29/15 20:59:06","Default description","no","mono","no","18","black","Ok","768","legacy","D:/Studie/Kunstmatige intelligentie/Master/Cognitive modeling/Experiment/subject-1861948.csv","xpyriment","Interactive Ising","3.0.4","0","z","NA","NA","z","272","NA","NA","272","legacy","experiment","1861948","even","legacy","80473","NA","NA","NA","NA","174441","NA","NA","172542","174158","2714","174441","171025","171006","174158","2714","CogMod 2015 Experiment","27","9097","27","yes","1024"
"1","1200","150","15","100","100","335","335","white","no","xpyriment","legacy","legacy","0","uniform","1","1","m","0","0","0","0","0","27","NA","NA","27","27","0","27","27","27","27","0","11/29/15 20:59:06","Default description","no","mono","no","18","black","Ok","768","legacy","D:/Studie/Kunstmatige intelligentie/Master/Cognitive modeling/Experiment/subject-1861948.csv","xpyriment","Interactive Ising","3.0.4","0","m","NA","NA","m","294","NA","NA","294","legacy","experiment","1861948","even","legacy","80473","NA","NA","NA","NA","178124","NA","NA","176591","177808","2714","178124","175075","175050","177808","2714","CogMod 2015 Experiment","28","9391","28","yes","1024"
"1","1200","150","15","100","100","334","334","white","no","xpyriment","legacy","legacy","0","uniform","1","1","m","0","0","0","0","0","28","NA","NA","28","28","0","28","28","28","28","0","11/29/15 20:59:06","Default description","no","mono","no","18","black","Ok","768","legacy","D:/Studie/Kunstmatige intelligentie/Master/Cognitive modeling/Experiment/subject-1861948.csv","xpyriment","Interactive Ising","3.0.4","0","m","NA","NA","m","315","NA","NA","315","legacy","experiment","1861948","even","legacy","80473","NA","NA","NA","NA","181792","NA","NA","180242","181459","2714","181792","178724","178713","181459","2714","CogMod 2015 Experiment","29","9706","29","yes","1024"
"1","800","150","15","100","100","339","339","white","no","xpyriment","legacy","legacy","0","uniform","1","1","m","0","0","0","0","0","29","NA","NA","29","29","0","29","29","29","29","0","11/29/15 20:59:06","Default description","no","mono","no","18","black","Ok","768","legacy","D:/Studie/Kunstmatige intelligentie/Master/Cognitive modeling/Experiment/subject-1861948.csv","xpyriment","Interactive Ising","3.0.4","0","m","NA","NA","m","487","NA","NA","487","legacy","experiment","1861948","even","legacy","80473","NA","NA","NA","NA","185241","NA","NA","183925","184742","2714","185241","182408","182386","184741","2714","CogMod 2015 Experiment","30","10193","30","yes","1024"
"1","1600","-150","15","100","100","340","340","white","no","xpyriment","legacy","legacy","0","uniform","1","1","z","0","0","0","0","0","30","NA","NA","30","30","0","30","30","30","30","0","11/29/15 20:59:06","Default description","no","mono","no","18","black","Ok","768","legacy","D:/Studie/Kunstmatige intelligentie/Master/Cognitive modeling/Experiment/subject-1861948.csv","xpyriment","Interactive Ising","3.0.4","0","z","NA","NA","z","351","NA","NA","351","legacy","experiment","1861948","even","legacy","80473","NA","NA","NA","NA","189441","NA","NA","187459","189075","2714","189441","185941","185917","189075","2714","CogMod 2015 Experiment","31","10544","31","yes","1024"
"1","1200","-150","15","100","100","341","341","white","no","xpyriment","legacy","legacy","0","uniform","1","1","z","0","0","0","0","0","31","NA","NA","31","31","0","31","31","31","31","0","11/29/15 20:59:06","Default description","no","mono","no","18","black","Ok","768","legacy","D:/Studie/Kunstmatige intelligentie/Master/Cognitive modeling/Experiment/subject-1861948.csv","xpyriment","Interactive Ising","3.0.4","0","z","NA","NA","z","385","NA","NA","385","legacy","experiment","1861948","even","legacy","80473","NA","NA","NA","NA","193175","NA","NA","191559","192776","2714","193175","190041","190025","192775","2714","CogMod 2015 Experiment","32","10929","32","yes","1024"
"1","400","150","15","100","100","345","345","white","no","xpyriment","legacy","legacy","0","uniform","1","1","m","0","0","0","0","0","32","NA","NA","32","32","0","32","32","32","32","0","11/29/15 20:59:06","Default description","no","mono","no","18","black","Ok","768","legacy","D:/Studie/Kunstmatige intelligentie/Master/Cognitive modeling/Experiment/subject-1861948.csv","xpyriment","Interactive Ising","3.0.4","0","m","NA","NA","m","466","NA","NA","466","legacy","experiment","1861948","even","legacy","80473","NA","NA","NA","NA","196242","NA","NA","195308","195725","2714","196242","193792","193781","195725","2714","CogMod 2015 Experiment","33","11395","33","yes","1024"
"1","800","150","15","100","100","345","345","white","no","xpyriment","legacy","legacy","0","uniform","1","1","m","0","0","0","0","0","33","NA","NA","33","33","0","33","33","33","33","0","11/29/15 20:59:06","Default description","no","mono","no","18","black","Ok","768","legacy","D:/Studie/Kunstmatige intelligentie/Master/Cognitive modeling/Experiment/subject-1861948.csv","xpyriment","Interactive Ising","3.0.4","0","m","NA","NA","m","365","NA","NA","365","legacy","experiment","1861948","even","legacy","80473","NA","NA","NA","NA","199542","NA","NA","198342","199159","2714","199542","196825","196805","199159","2714","CogMod 2015 Experiment","34","11760","34","yes","1024"
"1","400","-150","15","100","100","348","348","white","no","xpyriment","legacy","legacy","0","uniform","1","1","z","0","0","0","0","0","34","NA","NA","34","34","0","34","34","34","34","0","11/29/15 20:59:06","Default description","no","mono","no","18","black","Ok","768","legacy","D:/Studie/Kunstmatige intelligentie/Master/Cognitive modeling/Experiment/subject-1861948.csv","xpyriment","Interactive Ising","3.0.4","0","z","NA","NA","z","427","NA","NA","427","legacy","experiment","1861948","even","legacy","80473","NA","NA","NA","NA","202509","NA","NA","201642","202059","2714","202509","200125","200107","202059","2714","CogMod 2015 Experiment","35","12187","35","yes","1024"
"1","800","150","15","100","100","346","346","white","no","xpyriment","legacy","legacy","0","uniform","1","1","m","0","0","0","0","0","35","NA","NA","35","35","0","35","35","35","35","0","11/29/15 20:59:06","Default description","no","mono","no","18","black","Ok","768","legacy","D:/Studie/Kunstmatige intelligentie/Master/Cognitive modeling/Experiment/subject-1861948.csv","xpyriment","Interactive Ising","3.0.4","0","m","NA","NA","m","269","NA","NA","269","legacy","experiment","1861948","even","legacy","80473","NA","NA","NA","NA","205709","NA","NA","204609","205426","2714","205709","203092","203073","205426","2714","CogMod 2015 Experiment","36","12456","36","yes","1024"
"1","800","-150","15","100","100","345","345","white","no","xpyriment","legacy","legacy","0","uniform","1","1","z","0","0","0","0","0","36","NA","NA","36","36","0","36","36","36","36","0","11/29/15 20:59:06","Default description","no","mono","no","18","black","Ok","768","legacy","D:/Studie/Kunstmatige intelligentie/Master/Cognitive modeling/Experiment/subject-1861948.csv","xpyriment","Interactive Ising","3.0.4","0","z","NA","NA","z","326","NA","NA","326","legacy","experiment","1861948","even","legacy","80473","NA","NA","NA","NA","209059","NA","NA","207893","208710","2714","209059","206376","206351","208709","2714","CogMod 2015 Experiment","37","12782","37","yes","1024"
"1","800","150","15","100","100","343","343","white","no","xpyriment","legacy","legacy","0","uniform","1","1","m","0","0","0","0","0","37","NA","NA","37","37","0","37","37","37","37","0","11/29/15 20:59:06","Default description","no","mono","no","18","black","Ok","768","legacy","D:/Studie/Kunstmatige intelligentie/Master/Cognitive modeling/Experiment/subject-1861948.csv","xpyriment","Interactive Ising","3.0.4","0","m","NA","NA","m","277","NA","NA","277","legacy","experiment","1861948","even","legacy","80473","NA","NA","NA","NA","212359","NA","NA","211243","212060","2714","212359","209726","209711","212059","2714","CogMod 2015 Experiment","38","13059","38","yes","1024"
"1","800","-150","15","100","100","343","343","white","no","xpyriment","legacy","legacy","0","uniform","1","1","z","0","0","0","0","0","38","NA","NA","38","38","0","38","38","38","38","0","11/29/15 20:59:06","Default description","no","mono","no","18","black","Ok","768","legacy","D:/Studie/Kunstmatige intelligentie/Master/Cognitive modeling/Experiment/subject-1861948.csv","xpyriment","Interactive Ising","3.0.4","0","z","NA","NA","z","320","NA","NA","320","legacy","experiment","1861948","even","legacy","80473","NA","NA","NA","NA","215559","NA","NA","214409","215226","2714","215559","212892","212884","215226","2714","CogMod 2015 Experiment","39","13379","39","yes","1024"
"1","1200","150","15","100","100","342","342","white","no","xpyriment","legacy","legacy","0","uniform","1","1","m","0","0","0","0","0","39","NA","NA","39","39","0","39","39","39","39","0","11/29/15 20:59:06","Default description","no","mono","no","18","black","Ok","768","legacy","D:/Studie/Kunstmatige intelligentie/Master/Cognitive modeling/Experiment/subject-1861948.csv","xpyriment","Interactive Ising","3.0.4","0","m","NA","NA","m","308","NA","NA","308","legacy","experiment","1861948","even","legacy","80473","NA","NA","NA","NA","219243","NA","NA","217692","218909","2714","219243","216176","216158","218909","2714","CogMod 2015 Experiment","40","13687","40","yes","1024"
"1","1600","150","15","100","100","340","340","white","no","xpyriment","legacy","legacy","0","uniform","1","1","m","0","0","0","0","0","40","NA","NA","40","40","0","40","40","40","40","0","11/29/15 20:59:06","Default description","no","mono","no","18","black","Ok","768","legacy","D:/Studie/Kunstmatige intelligentie/Master/Cognitive modeling/Experiment/subject-1861948.csv","xpyriment","Interactive Ising","3.0.4","0","m","NA","NA","m","277","NA","NA","277","legacy","experiment","1861948","even","legacy","80473","NA","NA","NA","NA","223260","NA","NA","221343","222960","2714","223260","219827","219816","222960","2714","CogMod 2015 Experiment","41","13964","41","yes","1024"
"1","800","150","15","100","100","340","340","white","no","xpyriment","legacy","legacy","0","uniform","1","1","m","0","0","0","0","0","41","NA","NA","41","41","0","41","41","41","41","0","11/29/15 20:59:06","Default description","no","mono","no","18","black","Ok","768","legacy","D:/Studie/Kunstmatige intelligentie/Master/Cognitive modeling/Experiment/subject-1861948.csv","xpyriment","Interactive Ising","3.0.4","0","m","NA","NA","m","332","NA","NA","332","legacy","experiment","1861948","even","legacy","80473","NA","NA","NA","NA","226526","NA","NA","225359","226176","2714","226526","223843","223821","226176","2714","CogMod 2015 Experiment","42","14296","42","yes","1024"
"1","1600","-150","15","100","100","340","340","white","no","xpyriment","legacy","legacy","0","uniform","1","1","z","0","0","0","0","0","42","NA","NA","42","42","0","42","42","42","42","0","11/29/15 20:59:06","Default description","no","mono","no","18","black","Ok","768","legacy","D:/Studie/Kunstmatige intelligentie/Master/Cognitive modeling/Experiment/subject-1861948.csv","xpyriment","Interactive Ising","3.0.4","0","z","NA","NA","z","337","NA","NA","337","legacy","experiment","1861948","even","legacy","80473","NA","NA","NA","NA","230592","NA","NA","228626","230243","2714","230593","227110","227084","230243","2714","CogMod 2015 Experiment","43","14633","43","yes","1024"
"1","1200","150","15","100","100","341","341","white","no","xpyriment","legacy","legacy","0","uniform","1","1","m","0","0","0","0","0","43","NA","NA","43","43","0","43","43","43","43","0","11/29/15 20:59:06","Default description","no","mono","no","18","black","Ok","768","legacy","D:/Studie/Kunstmatige intelligentie/Master/Cognitive modeling/Experiment/subject-1861948.csv","xpyriment","Interactive Ising","3.0.4","0","m","NA","NA","m","403","NA","NA","403","legacy","experiment","1861948","even","legacy","80473","NA","NA","NA","NA","234326","NA","NA","232693","233910","2714","234326","231176","231153","233909","2714","CogMod 2015 Experiment","44","15036","44","yes","1024"
"1","1200","150","15","100","100","340","340","white","no","xpyriment","legacy","legacy","0","uniform","1","1","m","0","0","0","0","0","44","NA","NA","44","44","0","44","44","44","44","0","11/29/15 20:59:06","Default description","no","mono","no","18","black","Ok","768","legacy","D:/Studie/Kunstmatige intelligentie/Master/Cognitive modeling/Experiment/subject-1861948.csv","xpyriment","Interactive Ising","3.0.4","0","m","NA","NA","m","295","NA","NA","295","legacy","experiment","1861948","even","legacy","80473","NA","NA","NA","NA","237976","NA","NA","236443","237660","2714","237977","234926","234906","237660","2714","CogMod 2015 Experiment","45","15331","45","yes","1024"
"1","1200","150","15","100","100","340","340","white","no","xpyriment","legacy","legacy","0","uniform","1","1","m","0","0","0","0","0","45","NA","NA","45","45","0","45","45","45","45","0","11/29/15 20:59:06","Default description","no","mono","no","18","black","Ok","768","legacy","D:/Studie/Kunstmatige intelligentie/Master/Cognitive modeling/Experiment/subject-1861948.csv","xpyriment","Interactive Ising","3.0.4","0","m","NA","NA","m","316","NA","NA","316","legacy","experiment","1861948","even","legacy","80473","NA","NA","NA","NA","241643","NA","NA","240093","241310","2714","241643","238576","238559","241310","2714","CogMod 2015 Experiment","46","15647","46","yes","1024"
"1","1200","-150","15","100","100","338","338","white","no","xpyriment","legacy","legacy","0","uniform","1","1","z","0","0","0","0","0","46","NA","NA","46","46","0","46","46","46","46","0","11/29/15 20:59:06","Default description","no","mono","no","18","black","Ok","768","legacy","D:/Studie/Kunstmatige intelligentie/Master/Cognitive modeling/Experiment/subject-1861948.csv","xpyriment","Interactive Ising","3.0.4","0","z","NA","NA","z","245","NA","NA","245","legacy","experiment","1861948","even","legacy","80473","NA","NA","NA","NA","245227","NA","NA","243744","244961","2714","245227","242226","242203","244960","2714","CogMod 2015 Experiment","47","15892","47","yes","1024"
"1","1200","-150","15","100","100","337","337","white","no","xpyriment","legacy","legacy","0","uniform","1","1","z","0","0","0","0","0","47","NA","NA","47","47","0","47","47","47","47","0","11/29/15 20:59:06","Default description","no","mono","no","18","black","Ok","768","legacy","D:/Studie/Kunstmatige intelligentie/Master/Cognitive modeling/Experiment/subject-1861948.csv","xpyriment","Interactive Ising","3.0.4","0","z","NA","NA","z","331","NA","NA","331","legacy","experiment","1861948","even","legacy","80473","NA","NA","NA","NA","248927","NA","NA","247360","248577","2714","248927","245844","245830","248577","2714","CogMod 2015 Experiment","48","16223","48","yes","1024"
"1","400","150","15","100","100","342","342","white","no","xpyriment","legacy","legacy","0","uniform","1","1","m","0","0","0","0","0","48","NA","NA","48","48","0","48","48","48","48","0","11/29/15 20:59:06","Default description","no","mono","no","18","black","Ok","768","legacy","D:/Studie/Kunstmatige intelligentie/Master/Cognitive modeling/Experiment/subject-1861948.csv","xpyriment","Interactive Ising","3.0.4","0","m","NA","NA","m","547","NA","NA","547","legacy","experiment","1861948","even","legacy","80473","NA","NA","NA","NA","252043","NA","NA","251060","251477","2714","252043","249543","249521","251477","2714","CogMod 2015 Experiment","49","16770","49","yes","1024"
"1","400","150","15","100","100","343","343","white","no","xpyriment","legacy","legacy","0","uniform","1","1","m","0","0","0","0","0","49","NA","NA","49","49","0","49","49","49","49","0","11/29/15 20:59:06","Default description","no","mono","no","18","black","Ok","768","legacy","D:/Studie/Kunstmatige intelligentie/Master/Cognitive modeling/Experiment/subject-1861948.csv","xpyriment","Interactive Ising","3.0.4","0","m","NA","NA","m","382","NA","NA","382","legacy","experiment","1861948","even","legacy","80473","NA","NA","NA","NA","254943","NA","NA","254127","254543","2714","254943","252610","252599","254543","2714","CogMod 2015 Experiment","50","17152","50","yes","1024"
"1","1600","150","15","100","100","342","342","white","no","xpyriment","legacy","legacy","0","uniform","1","1","m","0","0","0","0","0","50","NA","NA","50","50","0","50","50","50","50","0","11/29/15 20:59:06","Default description","no","mono","no","18","black","Ok","768","legacy","D:/Studie/Kunstmatige intelligentie/Master/Cognitive modeling/Experiment/subject-1861948.csv","xpyriment","Interactive Ising","3.0.4","0","m","NA","NA","m","299","NA","NA","299","legacy","experiment","1861948","even","legacy","80473","NA","NA","NA","NA","259077","NA","NA","257144","258761","2714","259077","255626","255608","258760","2714","CogMod 2015 Experiment","51","17451","51","yes","1024"
"1","1200","-150","15","100","100","341","341","white","no","xpyriment","legacy","legacy","0","uniform","1","1","z","0","0","0","0","0","51","NA","NA","51","51","0","51","51","51","51","0","11/29/15 20:59:06","Default description","no","mono","no","18","black","Ok","768","legacy","D:/Studie/Kunstmatige intelligentie/Master/Cognitive modeling/Experiment/subject-1861948.csv","xpyriment","Interactive Ising","3.0.4","0","z","NA","NA","z","304","NA","NA","304","legacy","experiment","1861948","even","legacy","80473","NA","NA","NA","NA","262744","NA","NA","261211","262428","2714","262744","259694","259671","262427","2714","CogMod 2015 Experiment","52","17755","52","yes","1024"
"1","1200","-150","15","100","100","341","341","white","no","xpyriment","legacy","legacy","0","uniform","1","1","z","0","0","0","0","0","52","NA","NA","52","52","0","52","52","52","52","0","11/29/15 20:59:06","Default description","no","mono","no","18","black","Ok","768","legacy","D:/Studie/Kunstmatige intelligentie/Master/Cognitive modeling/Experiment/subject-1861948.csv","xpyriment","Interactive Ising","3.0.4","0","z","NA","NA","z","329","NA","NA","329","legacy","experiment","1861948","even","legacy","80473","NA","NA","NA","NA","266394","NA","NA","264827","266044","2714","266394","263310","263302","266044","2714","CogMod 2015 Experiment","53","18084","53","yes","1024"
"1","1600","150","15","100","100","340","340","white","no","xpyriment","legacy","legacy","0","uniform","1","1","m","0","0","0","0","0","53","NA","NA","53","53","0","53","53","53","53","0","11/29/15 20:59:06","Default description","no","mono","no","18","black","Ok","768","legacy","D:/Studie/Kunstmatige intelligentie/Master/Cognitive modeling/Experiment/subject-1861948.csv","xpyriment","Interactive Ising","3.0.4","0","m","NA","NA","m","318","NA","NA","318","legacy","experiment","1861948","even","legacy","80473","NA","NA","NA","NA","270461","NA","NA","268511","270128","2714","270461","266994","266985","270127","2714","CogMod 2015 Experiment","54","18402","54","yes","1024"
"1","800","150","15","100","100","341","341","white","no","xpyriment","legacy","legacy","0","uniform","1","1","m","0","0","0","0","0","54","NA","NA","54","54","0","54","54","54","54","0","11/29/15 20:59:06","Default description","no","mono","no","18","black","Ok","768","legacy","D:/Studie/Kunstmatige intelligentie/Master/Cognitive modeling/Experiment/subject-1861948.csv","xpyriment","Interactive Ising","3.0.4","0","m","NA","NA","m","401","NA","NA","401","legacy","experiment","1861948","even","legacy","80473","NA","NA","NA","NA","273793","NA","NA","272560","273377","2714","273794","271044","271030","273377","2714","CogMod 2015 Experiment","55","18803","55","yes","1024"
"1","1600","-150","15","100","100","341","341","white","no","xpyriment","legacy","legacy","0","uniform","1","1","z","0","0","0","0","0","55","NA","NA","55","55","0","55","55","55","55","0","11/29/15 20:59:06","Default description","no","mono","no","18","black","Ok","768","legacy","D:/Studie/Kunstmatige intelligentie/Master/Cognitive modeling/Experiment/subject-1861948.csv","xpyriment","Interactive Ising","3.0.4","0","z","NA","NA","z","323","NA","NA","323","legacy","experiment","1861948","even","legacy","80473","NA","NA","NA","NA","277861","NA","NA","275911","277528","2714","277861","274394","274378","277528","2714","CogMod 2015 Experiment","56","19126","56","yes","1024"
"1","400","150","15","100","100","341","341","white","no","xpyriment","legacy","legacy","0","uniform","1","1","m","0","0","0","0","0","56","NA","NA","56","56","0","56","56","56","56","0","11/29/15 20:59:06","Default description","no","mono","no","18","black","Ok","768","legacy","D:/Studie/Kunstmatige intelligentie/Master/Cognitive modeling/Experiment/subject-1861948.csv","xpyriment","Interactive Ising","3.0.4","0","m","NA","NA","m","355","NA","NA","355","legacy","experiment","1861948","even","legacy","80473","NA","NA","NA","NA","280794","NA","NA","280011","280427","2714","280794","278494","278465","280427","2714","CogMod 2015 Experiment","57","19481","57","yes","1024"
"1","800","-150","15","100","100","340","340","white","no","xpyriment","legacy","legacy","0","uniform","1","1","z","0","0","0","0","0","57","NA","NA","57","57","0","57","57","57","57","0","11/29/15 20:59:06","Default description","no","mono","no","18","black","Ok","768","legacy","D:/Studie/Kunstmatige intelligentie/Master/Cognitive modeling/Experiment/subject-1861948.csv","xpyriment","Interactive Ising","3.0.4","0","z","NA","NA","z","247","NA","NA","247","legacy","experiment","1861948","even","legacy","80473","NA","NA","NA","NA","284010","NA","NA","282927","283744","2714","284010","281410","281388","283744","2714","CogMod 2015 Experiment","58","19728","58","yes","1024"
"1","800","150","15","100","100","339","339","white","no","xpyriment","legacy","legacy","0","uniform","1","1","m","0","0","0","0","0","58","NA","NA","58","58","0","58","58","58","58","0","11/29/15 20:59:06","Default description","no","mono","no","18","black","Ok","768","legacy","D:/Studie/Kunstmatige intelligentie/Master/Cognitive modeling/Experiment/subject-1861948.csv","xpyriment","Interactive Ising","3.0.4","0","m","NA","NA","m","322","NA","NA","322","legacy","experiment","1861948","even","legacy","80473","NA","NA","NA","NA","287210","NA","NA","286061","286878","2714","287211","284544","284529","286877","2714","CogMod 2015 Experiment","59","20050","59","yes","1024"
"1","1600","150","15","100","100","339","339","white","no","xpyriment","legacy","legacy","0","uniform","1","1","m","0","0","0","0","0","59","NA","NA","59","59","0","59","59","59","59","0","11/29/15 20:59:06","Default description","no","mono","no","18","black","Ok","768","legacy","D:/Studie/Kunstmatige intelligentie/Master/Cognitive modeling/Experiment/subject-1861948.csv","xpyriment","Interactive Ising","3.0.4","0","m","NA","NA","m","298","NA","NA","298","legacy","experiment","1861948","even","legacy","80473","NA","NA","NA","NA","291261","NA","NA","289328","290945","2714","291261","287811","287800","290945","2714","CogMod 2015 Experiment","60","20348","60","yes","1024"
"1","800","150","15","100","100","338","338","white","no","xpyriment","legacy","legacy","0","uniform","1","1","m","0","0","0","0","0","60","NA","NA","60","60","0","60","60","60","60","0","11/29/15 20:59:06","Default description","no","mono","no","18","black","Ok","768","legacy","D:/Studie/Kunstmatige intelligentie/Master/Cognitive modeling/Experiment/subject-1861948.csv","xpyriment","Interactive Ising","3.0.4","0","m","NA","NA","m","329","NA","NA","329","legacy","experiment","1861948","even","legacy","80473","NA","NA","NA","NA","294511","NA","NA","293344","294161","2714","294511","291828","291819","294161","2714","CogMod 2015 Experiment","61","20677","61","yes","1024"
"1","1200","-150","15","100","100","338","338","white","no","xpyriment","legacy","legacy","0","uniform","1","1","z","0","0","0","0","0","61","NA","NA","61","61","0","61","61","61","61","0","11/29/15 20:59:06","Default description","no","mono","no","18","black","Ok","768","legacy","D:/Studie/Kunstmatige intelligentie/Master/Cognitive modeling/Experiment/subject-1861948.csv","xpyriment","Interactive Ising","3.0.4","0","z","NA","NA","z","286","NA","NA","286","legacy","experiment","1861948","even","legacy","80473","NA","NA","NA","NA","298144","NA","NA","296628","297845","2714","298144","295111","295090","297844","2714","CogMod 2015 Experiment","62","20963","62","yes","1024"
"1","1600","150","15","100","100","339","339","white","no","xpyriment","legacy","legacy","0","uniform","1","1","m","0","0","0","0","0","62","NA","NA","62","62","0","62","62","62","62","0","11/29/15 20:59:06","Default description","no","mono","no","18","black","Ok","768","legacy","D:/Studie/Kunstmatige intelligentie/Master/Cognitive modeling/Experiment/subject-1861948.csv","xpyriment","Interactive Ising","3.0.4","0","m","NA","NA","m","449","NA","NA","449","legacy","experiment","1861948","even","legacy","80473","NA","NA","NA","NA","302345","NA","NA","300261","301878","2714","302345","298744","298722","301878","2714","CogMod 2015 Experiment","63","21412","63","yes","1024"
"1","1600","150","15","100","100","339","339","white","no","xpyriment","legacy","legacy","0","uniform","1","1","m","0","0","0","0","0","63","NA","NA","63","63","0","63","63","63","63","0","11/29/15 20:59:06","Default description","no","mono","no","18","black","Ok","768","legacy","D:/Studie/Kunstmatige intelligentie/Master/Cognitive modeling/Experiment/subject-1861948.csv","xpyriment","Interactive Ising","3.0.4","0","m","NA","NA","m","294","NA","NA","294","legacy","experiment","1861948","even","legacy","80473","NA","NA","NA","NA","306361","NA","NA","304428","306045","2714","306361","302912","302896","306044","2714","CogMod 2015 Experiment","64","21706","64","yes","1024"
"1","800","150","15","98.4615384615","98.4615384615","339","339","white","no","xpyriment","legacy","legacy","0","uniform","0","0","m","0","0","0","0","0","64","NA","NA","64","64","0","64","64","64","64","0","11/29/15 20:59:06","Default description","no","mono","no","18","black","Ok","768","legacy","D:/Studie/Kunstmatige intelligentie/Master/Cognitive modeling/Experiment/subject-1861948.csv","xpyriment","Interactive Ising","3.0.4","0","z","NA","NA","z","345","NA","NA","345","legacy","experiment","1861948","even","legacy","80473","NA","NA","NA","NA","309661","NA","NA","308478","309295","2714","309661","306962","306947","309295","2714","CogMod 2015 Experiment","64","22051","65","yes","1024"
"1","400","150","15","98.4848484848","98.4848484848","341","341","white","no","xpyriment","legacy","legacy","0","uniform","1","1","m","0","0","0","0","0","65","NA","NA","65","65","0","65","65","65","65","0","11/29/15 20:59:06","Default description","no","mono","no","18","black","Ok","768","legacy","D:/Studie/Kunstmatige intelligentie/Master/Cognitive modeling/Experiment/subject-1861948.csv","xpyriment","Interactive Ising","3.0.4","0","m","NA","NA","m","484","NA","NA","484","legacy","experiment","1861948","even","legacy","80473","NA","NA","NA","NA","312712","NA","NA","311795","312212","2714","312712","310278","310256","312212","2714","CogMod 2015 Experiment","65","22535","66","yes","1024"
"1","1600","-150","15","98.5074626866","98.5074626866","341","341","white","no","xpyriment","legacy","legacy","0","uniform","1","1","z","0","0","0","0","0","66","NA","NA","66","66","0","66","66","66","66","0","11/29/15 20:59:06","Default description","no","mono","no","18","black","Ok","768","legacy","D:/Studie/Kunstmatige intelligentie/Master/Cognitive modeling/Experiment/subject-1861948.csv","xpyriment","Interactive Ising","3.0.4","0","z","NA","NA","z","339","NA","NA","339","legacy","experiment","1861948","even","legacy","80473","NA","NA","NA","NA","316778","NA","NA","314812","316429","2714","316778","313295","313279","316428","2714","CogMod 2015 Experiment","66","22874","67","yes","1024"
"1","1600","-150","15","98.5294117647","98.5294117647","341","341","white","no","xpyriment","legacy","legacy","0","uniform","1","1","z","0","0","0","0","0","67","NA","NA","67","67","0","67","67","67","67","0","11/29/15 20:59:06","Default description","no","mono","no","18","black","Ok","768","legacy","D:/Studie/Kunstmatige intelligentie/Master/Cognitive modeling/Experiment/subject-1861948.csv","xpyriment","Interactive Ising","3.0.4","0","z","NA","NA","z","345","NA","NA","345","legacy","experiment","1861948","even","legacy","80473","NA","NA","NA","NA","320895","NA","NA","318912","320529","2714","320895","317395","317377","320528","2714","CogMod 2015 Experiment","67","23219","68","yes","1024"
"1","1600","-150","15","98.5507246377","98.5507246377","340","340","white","no","xpyriment","legacy","legacy","0","uniform","1","1","z","0","0","0","0","0","68","NA","NA","68","68","0","68","68","68","68","0","11/29/15 20:59:06","Default description","no","mono","no","18","black","Ok","768","legacy","D:/Studie/Kunstmatige intelligentie/Master/Cognitive modeling/Experiment/subject-1861948.csv","xpyriment","Interactive Ising","3.0.4","0","z","NA","NA","z","304","NA","NA","304","legacy","experiment","1861948","even","legacy","80473","NA","NA","NA","NA","324929","NA","NA","322996","324613","2714","324929","321478","321468","324612","2714","CogMod 2015 Experiment","68","23523","69","yes","1024"
"1","1200","-150","15","98.5714285714","98.5714285714","340","340","white","no","xpyriment","legacy","legacy","0","uniform","1","1","z","0","0","0","0","0","69","NA","NA","69","69","0","69","69","69","69","0","11/29/15 20:59:06","Default description","no","mono","no","18","black","Ok","768","legacy","D:/Studie/Kunstmatige intelligentie/Master/Cognitive modeling/Experiment/subject-1861948.csv","xpyriment","Interactive Ising","3.0.4","0","z","NA","NA","z","325","NA","NA","325","legacy","experiment","1861948","even","legacy","80473","NA","NA","NA","NA","328612","NA","NA","327045","328263","2714","328612","325529","325512","328262","2714","CogMod 2015 Experiment","69","23848","70","yes","1024"
"1","1600","150","15","98.5915492958","98.5915492958","340","340","white","no","xpyriment","legacy","legacy","0","uniform","1","1","m","0","0","0","0","0","70","NA","NA","70","70","0","70","70","70","70","0","11/29/15 20:59:06","Default description","no","mono","no","18","black","Ok","768","legacy","D:/Studie/Kunstmatige intelligentie/Master/Cognitive modeling/Experiment/subject-1861948.csv","xpyriment","Interactive Ising","3.0.4","0","m","NA","NA","m","349","NA","NA","349","legacy","experiment","1861948","even","legacy","80473","NA","NA","NA","NA","332679","NA","NA","330696","332312","2714","332679","329179","329162","332312","2714","CogMod 2015 Experiment","70","24197","71","yes","1024"
"1","400","-150","15","98.6111111111","98.6111111111","342","342","white","no","xpyriment","legacy","legacy","0","uniform","1","1","z","0","0","0","0","0","71","NA","NA","71","71","0","71","71","71","71","0","11/29/15 20:59:06","Default description","no","mono","no","18","black","Ok","768","legacy","D:/Studie/Kunstmatige intelligentie/Master/Cognitive modeling/Experiment/subject-1861948.csv","xpyriment","Interactive Ising","3.0.4","0","z","NA","NA","z","467","NA","NA","467","legacy","experiment","1861948","even","legacy","80473","NA","NA","NA","NA","335762","NA","NA","334863","335279","2714","335762","333345","333335","335279","2714","CogMod 2015 Experiment","71","24664","72","yes","1024"
"1","400","-150","15","98.6301369863","98.6301369863","343","343","white","no","xpyriment","legacy","legacy","0","uniform","1","1","z","0","0","0","0","0","72","NA","NA","72","72","0","72","72","72","72","0","11/29/15 20:59:06","Default description","no","mono","no","18","black","Ok","768","legacy","D:/Studie/Kunstmatige intelligentie/Master/Cognitive modeling/Experiment/subject-1861948.csv","xpyriment","Interactive Ising","3.0.4","0","z","NA","NA","z","382","NA","NA","382","legacy","experiment","1861948","even","legacy","80473","NA","NA","NA","NA","338695","NA","NA","337879","338296","2714","338696","336362","336340","338296","2714","CogMod 2015 Experiment","72","25046","73","yes","1024"
"1","800","150","15","98.6486486486","98.6486486486","342","342","white","no","xpyriment","legacy","legacy","0","uniform","1","1","m","0","0","0","0","0","73","NA","NA","73","73","0","73","73","73","73","0","11/29/15 20:59:06","Default description","no","mono","no","18","black","Ok","768","legacy","D:/Studie/Kunstmatige intelligentie/Master/Cognitive modeling/Experiment/subject-1861948.csv","xpyriment","Interactive Ising","3.0.4","0","m","NA","NA","m","322","NA","NA","322","legacy","experiment","1861948","even","legacy","80473","NA","NA","NA","NA","341929","NA","NA","340779","341596","2714","341929","339262","339251","341596","2714","CogMod 2015 Experiment","73","25368","74","yes","1024"
"1","400","-150","15","98.6666666667","98.6666666667","343","343","white","no","xpyriment","legacy","legacy","0","uniform","1","1","z","0","0","0","0","0","74","NA","NA","74","74","0","74","74","74","74","0","11/29/15 20:59:06","Default description","no","mono","no","18","black","Ok","768","legacy","D:/Studie/Kunstmatige intelligentie/Master/Cognitive modeling/Experiment/subject-1861948.csv","xpyriment","Interactive Ising","3.0.4","0","z","NA","NA","z","404","NA","NA","404","legacy","experiment","1861948","even","legacy","80473","NA","NA","NA","NA","344863","NA","NA","344030","344446","2714","344863","342513","342498","344446","2714","CogMod 2015 Experiment","74","25772","75","yes","1024"
"1","1200","150","15","98.6842105263","98.6842105263","343","343","white","no","xpyriment","legacy","legacy","0","uniform","1","1","m","0","0","0","0","0","75","NA","NA","75","75","0","75","75","75","75","0","11/29/15 20:59:06","Default description","no","mono","no","18","black","Ok","768","legacy","D:/Studie/Kunstmatige intelligentie/Master/Cognitive modeling/Experiment/subject-1861948.csv","xpyriment","Interactive Ising","3.0.4","0","m","NA","NA","m","296","NA","NA","296","legacy","experiment","1861948","even","legacy","80473","NA","NA","NA","NA","348479","NA","NA","346946","348163","2714","348479","345429","345407","348162","2714","CogMod 2015 Experiment","75","26068","76","yes","1024"
"1","800","-150","15","98.7012987013","98.7012987013","342","342","white","no","xpyriment","legacy","legacy","0","uniform","1","1","z","0","0","0","0","0","76","NA","NA","76","76","0","76","76","76","76","0","11/29/15 20:59:06","Default description","no","mono","no","18","black","Ok","768","legacy","D:/Studie/Kunstmatige intelligentie/Master/Cognitive modeling/Experiment/subject-1861948.csv","xpyriment","Interactive Ising","3.0.4","0","z","NA","NA","z","304","NA","NA","304","legacy","experiment","1861948","even","legacy","80473","NA","NA","NA","NA","351713","NA","NA","350580","351396","2714","351713","349062","349041","351396","2714","CogMod 2015 Experiment","76","26372","77","yes","1024"
"1","1600","-150","15","98.7179487179","98.7179487179","342","342","white","no","xpyriment","legacy","legacy","0","uniform","1","1","z","0","0","0","0","0","77","NA","NA","77","77","0","77","77","77","77","0","11/29/15 20:59:06","Default description","no","mono","no","18","black","Ok","768","legacy","D:/Studie/Kunstmatige intelligentie/Master/Cognitive modeling/Experiment/subject-1861948.csv","xpyriment","Interactive Ising","3.0.4","0","z","NA","NA","z","327","NA","NA","327","legacy","experiment","1861948","even","legacy","80473","NA","NA","NA","NA","355796","NA","NA","353829","355446","2714","355796","352313","352301","355446","2714","CogMod 2015 Experiment","77","26699","78","yes","1024"
"1","400","150","15","98.7341772152","98.7341772152","343","343","white","no","xpyriment","legacy","legacy","0","uniform","1","1","m","0","0","0","0","0","78","NA","NA","78","78","0","78","78","78","78","0","11/29/15 20:59:06","Default description","no","mono","no","18","black","Ok","768","legacy","D:/Studie/Kunstmatige intelligentie/Master/Cognitive modeling/Experiment/subject-1861948.csv","xpyriment","Interactive Ising","3.0.4","0","m","NA","NA","m","435","NA","NA","435","legacy","experiment","1861948","even","legacy","80473","NA","NA","NA","NA","358779","NA","NA","357913","358330","2714","358779","356396","356377","358329","2714","CogMod 2015 Experiment","78","27134","79","yes","1024"
"1","400","-150","15","98.75","98.75","343","343","white","no","xpyriment","legacy","legacy","0","uniform","1","1","z","0","0","0","0","0","79","NA","NA","79","79","0","79","79","79","79","0","11/29/15 20:59:06","Default description","no","mono","no","18","black","Ok","768","legacy","D:/Studie/Kunstmatige intelligentie/Master/Cognitive modeling/Experiment/subject-1861948.csv","xpyriment","Interactive Ising","3.0.4","0","z","NA","NA","z","336","NA","NA","336","legacy","experiment","1861948","even","legacy","80473","NA","NA","NA","NA","361680","NA","NA","360913","361330","2714","361680","359396","359377","361330","2714","CogMod 2015 Experiment","79","27470","80","yes","1024"
"1","400","-150","15","98.7654320988","98.7654320988","343","343","white","no","xpyriment","legacy","legacy","0","uniform","1","1","z","0","0","0","0","0","80","NA","NA","80","80","0","80","80","80","80","0","11/29/15 20:59:06","Default description","no","mono","no","18","black","Ok","768","legacy","D:/Studie/Kunstmatige intelligentie/Master/Cognitive modeling/Experiment/subject-1861948.csv","xpyriment","Interactive Ising","3.0.4","0","z","NA","NA","z","370","NA","NA","370","legacy","experiment","1861948","even","legacy","80473","NA","NA","NA","NA","364580","NA","NA","363780","364197","2714","364580","362263","362251","364196","2714","CogMod 2015 Experiment","80","27840","81","yes","1024"
"1","1200","150","15","98.7804878049","98.7804878049","343","343","white","no","xpyriment","legacy","legacy","0","uniform","1","1","m","0","0","0","0","0","81","NA","NA","81","81","0","81","81","81","81","0","11/29/15 20:59:06","Default description","no","mono","no","18","black","Ok","768","legacy","D:/Studie/Kunstmatige intelligentie/Master/Cognitive modeling/Experiment/subject-1861948.csv","xpyriment","Interactive Ising","3.0.4","0","m","NA","NA","m","311","NA","NA","311","legacy","experiment","1861948","even","legacy","80473","NA","NA","NA","NA","368230","NA","NA","366680","367897","2714","368230","365163","365139","367896","2714","CogMod 2015 Experiment","81","28151","82","yes","1024"
"1","800","-150","15","98.7951807229","98.7951807229","342","342","white","no","xpyriment","legacy","legacy","0","uniform","1","1","z","0","0","0","0","0","82","NA","NA","82","82","0","82","82","82","82","0","11/29/15 20:59:06","Default description","no","mono","no","18","black","Ok","768","legacy","D:/Studie/Kunstmatige intelligentie/Master/Cognitive modeling/Experiment/subject-1861948.csv","xpyriment","Interactive Ising","3.0.4","0","z","NA","NA","z","317","NA","NA","317","legacy","experiment","1861948","even","legacy","80473","NA","NA","NA","NA","371463","NA","NA","370313","371130","2714","371463","368796","368788","371130","2714","CogMod 2015 Experiment","82","28468","83","yes","1024"
"1","800","-150","15","98.8095238095","98.8095238095","342","342","white","no","xpyriment","legacy","legacy","0","uniform","1","1","z","0","0","0","0","0","83","NA","NA","83","83","0","83","83","83","83","0","11/29/15 20:59:06","Default description","no","mono","no","18","black","Ok","768","legacy","D:/Studie/Kunstmatige intelligentie/Master/Cognitive modeling/Experiment/subject-1861948.csv","xpyriment","Interactive Ising","3.0.4","0","z","NA","NA","z","291","NA","NA","291","legacy","experiment","1861948","even","legacy","80473","NA","NA","NA","NA","374697","NA","NA","373579","374397","2714","374697","372063","372043","374397","2714","CogMod 2015 Experiment","83","28759","84","yes","1024"
"1","1600","-150","15","98.8235294118","98.8235294118","342","342","white","no","xpyriment","legacy","legacy","0","uniform","1","1","z","0","0","0","0","0","84","NA","NA","84","84","0","84","84","84","84","0","11/29/15 20:59:06","Default description","no","mono","no","18","black","Ok","768","legacy","D:/Studie/Kunstmatige intelligentie/Master/Cognitive modeling/Experiment/subject-1861948.csv","xpyriment","Interactive Ising","3.0.4","0","z","NA","NA","z","395","NA","NA","395","legacy","experiment","1861948","even","legacy","80473","NA","NA","NA","NA","378813","NA","NA","376780","378397","2714","378813","375264","375254","378397","2714","CogMod 2015 Experiment","84","29154","85","yes","1024"
"1","1200","150","15","98.8372093023","98.8372093023","343","343","white","no","xpyriment","legacy","legacy","0","uniform","1","1","m","0","0","0","0","0","85","NA","NA","85","85","0","85","85","85","85","0","11/29/15 20:59:06","Default description","no","mono","no","18","black","Ok","768","legacy","D:/Studie/Kunstmatige intelligentie/Master/Cognitive modeling/Experiment/subject-1861948.csv","xpyriment","Interactive Ising","3.0.4","0","m","NA","NA","m","347","NA","NA","347","legacy","experiment","1861948","even","legacy","80473","NA","NA","NA","NA","382513","NA","NA","380930","382147","2714","382513","379413","379395","382147","2714","CogMod 2015 Experiment","85","29501","86","yes","1024"
"1","400","-150","15","98.8505747126","98.8505747126","343","343","white","no","xpyriment","legacy","legacy","0","uniform","1","1","z","0","0","0","0","0","86","NA","NA","86","86","0","86","86","86","86","0","11/29/15 20:59:06","Default description","no","mono","no","18","black","Ok","768","legacy","D:/Studie/Kunstmatige intelligentie/Master/Cognitive modeling/Experiment/subject-1861948.csv","xpyriment","Interactive Ising","3.0.4","0","z","NA","NA","z","395","NA","NA","395","legacy","experiment","1861948","even","legacy","80473","NA","NA","NA","NA","385447","NA","NA","384613","385031","2714","385447","383097","383072","385031","2714","CogMod 2015 Experiment","86","29896","87","yes","1024"
"1","1600","150","15","98.8636363636","98.8636363636","343","343","white","no","xpyriment","legacy","legacy","0","uniform","1","1","m","0","0","0","0","0","87","NA","NA","87","87","0","87","87","87","87","0","11/29/15 20:59:06","Default description","no","mono","no","18","black","Ok","768","legacy","D:/Studie/Kunstmatige intelligentie/Master/Cognitive modeling/Experiment/subject-1861948.csv","xpyriment","Interactive Ising","3.0.4","0","m","NA","NA","m","319","NA","NA","319","legacy","experiment","1861948","even","legacy","80473","NA","NA","NA","NA","389514","NA","NA","387564","389181","2714","389514","386047","386024","389181","2714","CogMod 2015 Experiment","87","30215","88","yes","1024"
"1","400","150","15","98.8764044944","98.8764044944","343","343","white","no","xpyriment","legacy","legacy","0","uniform","1","1","m","0","0","0","0","0","88","NA","NA","88","88","0","88","88","88","88","0","11/29/15 20:59:06","Default description","no","mono","no","18","black","Ok","768","legacy","D:/Studie/Kunstmatige intelligentie/Master/Cognitive modeling/Experiment/subject-1861948.csv","xpyriment","Interactive Ising","3.0.4","0","m","NA","NA","m","324","NA","NA","324","legacy","experiment","1861948","even","legacy","80473","NA","NA","NA","NA","392347","NA","NA","391597","392014","2714","392347","390081","390072","392014","2714","CogMod 2015 Experiment","88","30539","89","yes","1024"
"1","800","-150","15","98.8888888889","98.8888888889","342","342","white","no","xpyriment","legacy","legacy","0","uniform","1","1","z","0","0","0","0","0","89","NA","NA","89","89","0","89","89","89","89","0","11/29/15 20:59:06","Default description","no","mono","no","18","black","Ok","768","legacy","D:/Studie/Kunstmatige intelligentie/Master/Cognitive modeling/Experiment/subject-1861948.csv","xpyriment","Interactive Ising","3.0.4","0","z","NA","NA","z","314","NA","NA","314","legacy","experiment","1861948","even","legacy","80473","NA","NA","NA","NA","395597","NA","NA","394447","395264","2714","395597","392931","392908","395264","2714","CogMod 2015 Experiment","89","30853","90","yes","1024"
"1","1200","150","15","98.9010989011","98.9010989011","342","342","white","no","xpyriment","legacy","legacy","0","uniform","1","1","m","0","0","0","0","0","90","NA","NA","90","90","0","90","90","90","90","0","11/29/15 20:59:06","Default description","no","mono","no","18","black","Ok","768","legacy","D:/Studie/Kunstmatige intelligentie/Master/Cognitive modeling/Experiment/subject-1861948.csv","xpyriment","Interactive Ising","3.0.4","0","m","NA","NA","m","353","NA","NA","353","legacy","experiment","1861948","even","legacy","80473","NA","NA","NA","NA","399264","NA","NA","397681","398897","2714","399264","396164","396148","398897","2714","CogMod 2015 Experiment","90","31206","91","yes","1024"
"1","400","150","15","98.9130434783","98.9130434783","342","342","white","no","xpyriment","legacy","legacy","0","uniform","1","1","m","0","0","0","0","0","91","NA","NA","91","91","0","91","91","91","91","0","11/29/15 20:59:06","Default description","no","mono","no","18","black","Ok","768","legacy","D:/Studie/Kunstmatige intelligentie/Master/Cognitive modeling/Experiment/subject-1861948.csv","xpyriment","Interactive Ising","3.0.4","0","m","NA","NA","m","339","NA","NA","339","legacy","experiment","1861948","even","legacy","80473","NA","NA","NA","NA","402130","NA","NA","401364","401781","2714","402130","399847","399837","401780","2714","CogMod 2015 Experiment","91","31545","92","yes","1024"
"1","800","-150","15","98.9247311828","98.9247311828","342","342","white","no","xpyriment","legacy","legacy","0","uniform","1","1","z","0","0","0","0","0","92","NA","NA","92","92","0","92","92","92","92","0","11/29/15 20:59:06","Default description","no","mono","no","18","black","Ok","768","legacy","D:/Studie/Kunstmatige intelligentie/Master/Cognitive modeling/Experiment/subject-1861948.csv","xpyriment","Interactive Ising","3.0.4","0","z","NA","NA","z","310","NA","NA","310","legacy","experiment","1861948","even","legacy","80473","NA","NA","NA","NA","405414","NA","NA","404264","405081","2714","405414","402747","402724","405081","2714","CogMod 2015 Experiment","92","31855","93","yes","1024"
"1","1200","-150","15","98.9361702128","98.9361702128","342","342","white","no","xpyriment","legacy","legacy","0","uniform","1","1","z","0","0","0","0","0","93","NA","NA","93","93","0","93","93","93","93","0","11/29/15 20:59:06","Default description","no","mono","no","18","black","Ok","768","legacy","D:/Studie/Kunstmatige intelligentie/Master/Cognitive modeling/Experiment/subject-1861948.csv","xpyriment","Interactive Ising","3.0.4","0","z","NA","NA","z","318","NA","NA","318","legacy","experiment","1861948","even","legacy","80473","NA","NA","NA","NA","409047","NA","NA","407498","408714","2714","409047","405981","405972","408714","2714","CogMod 2015 Experiment","93","32173","94","yes","1024"
"1","1200","-150","15","98.9473684211","98.9473684211","342","342","white","no","xpyriment","legacy","legacy","0","uniform","1","1","z","0","0","0","0","0","94","NA","NA","94","94","0","94","94","94","94","0","11/29/15 20:59:06","Default description","no","mono","no","18","black","Ok","768","legacy","D:/Studie/Kunstmatige intelligentie/Master/Cognitive modeling/Experiment/subject-1861948.csv","xpyriment","Interactive Ising","3.0.4","0","z","NA","NA","z","323","NA","NA","323","legacy","experiment","1861948","even","legacy","80473","NA","NA","NA","NA","412714","NA","NA","411164","412381","2714","412714","409647","409625","412381","2714","CogMod 2015 Experiment","94","32496","95","yes","1024"
"1","400","150","15","98.9583333333","98.9583333333","342","342","white","no","xpyriment","legacy","legacy","0","uniform","1","1","m","0","0","0","0","0","95","NA","NA","95","95","0","95","95","95","95","0","11/29/15 20:59:06","Default description","no","mono","no","18","black","Ok","768","legacy","D:/Studie/Kunstmatige intelligentie/Master/Cognitive modeling/Experiment/subject-1861948.csv","xpyriment","Interactive Ising","3.0.4","0","m","NA","NA","m","418","NA","NA","418","legacy","experiment","1861948","even","legacy","80473","NA","NA","NA","NA","415681","NA","NA","414831","415248","2714","415681","413314","413296","415248","2714","CogMod 2015 Experiment","95","32914","96","yes","1024"
"1","1200","-150","15","98.9690721649","98.9690721649","342","342","white","no","xpyriment","legacy","legacy","0","uniform","1","1","z","0","0","0","0","0","96","NA","NA","96","96","0","96","96","96","96","0","11/29/15 20:59:06","Default description","no","mono","no","18","black","Ok","768","legacy","D:/Studie/Kunstmatige intelligentie/Master/Cognitive modeling/Experiment/subject-1861948.csv","xpyriment","Interactive Ising","3.0.4","0","z","NA","NA","z","278","NA","NA","278","legacy","experiment","1861948","even","legacy","80473","NA","NA","NA","NA","419297","NA","NA","417781","418998","2714","419297","416265","416247","418997","2714","CogMod 2015 Experiment","96","33192","97","yes","1024"
"1","400","150","15","98.9795918367","98.9795918367","342","342","white","no","xpyriment","legacy","legacy","0","uniform","1","1","m","0","0","0","0","0","97","NA","NA","97","97","0","97","97","97","97","0","11/29/15 20:59:06","Default description","no","mono","no","18","black","Ok","768","legacy","D:/Studie/Kunstmatige intelligentie/Master/Cognitive modeling/Experiment/subject-1861948.csv","xpyriment","Interactive Ising","3.0.4","0","m","NA","NA","m","378","NA","NA","378","legacy","experiment","1861948","even","legacy","80473","NA","NA","NA","NA","422231","NA","NA","421415","421831","2714","422231","419897","419887","421831","2714","CogMod 2015 Experiment","97","33570","98","yes","1024"
"1","400","-150","15","98.9898989899","98.9898989899","343","343","white","no","xpyriment","legacy","legacy","0","uniform","1","1","z","0","0","0","0","0","98","NA","NA","98","98","0","98","98","98","98","0","11/29/15 20:59:06","Default description","no","mono","no","18","black","Ok","768","legacy","D:/Studie/Kunstmatige intelligentie/Master/Cognitive modeling/Experiment/subject-1861948.csv","xpyriment","Interactive Ising","3.0.4","0","z","NA","NA","z","393","NA","NA","393","legacy","experiment","1861948","even","legacy","80473","NA","NA","NA","NA","425165","NA","NA","424331","424748","2714","425165","422814","422790","424748","2714","CogMod 2015 Experiment","98","33963","99","yes","1024"
"1","1200","-150","15","99","99","342","342","white","no","xpyriment","legacy","legacy","0","uniform","1","1","z","0","0","0","0","0","99","NA","NA","99","99","0","99","99","99","99","0","11/29/15 20:59:06","Default description","no","mono","no","18","black","Ok","768","legacy","D:/Studie/Kunstmatige intelligentie/Master/Cognitive modeling/Experiment/subject-1861948.csv","xpyriment","Interactive Ising","3.0.4","0","z","NA","NA","z","331","NA","NA","331","legacy","experiment","1861948","even","legacy","80473","NA","NA","NA","NA","428831","NA","NA","427265","428481","2714","428831","425748","425725","428481","2714","CogMod 2015 Experiment","99","34294","100","yes","1024"
"1","400","-150","15","98.0198019802","98.0198019802","340","340","white","no","xpyriment","legacy","legacy","0","uniform","0","0","z","0","0","0","0","0","100","NA","NA","100","100","0","100","100","100","100","0","11/29/15 20:59:06","Default description","no","mono","no","18","black","Ok","768","legacy","D:/Studie/Kunstmatige intelligentie/Master/Cognitive modeling/Experiment/subject-1861948.csv","xpyriment","Interactive Ising","3.0.4","0","m","NA","NA","m","90","NA","NA","90","legacy","experiment","1861948","even","legacy","80473","NA","NA","NA","NA","431449","NA","NA","430932","431349","2714","431449","429414","429402","431348","2714","CogMod 2015 Experiment","99","34384","101","yes","1024"
"1","800","150","15","98.0392156863","98.0392156863","340","340","white","no","xpyriment","legacy","legacy","0","uniform","1","1","m","0","0","0","0","0","101","NA","NA","101","101","0","101","101","101","101","0","11/29/15 20:59:06","Default description","no","mono","no","18","black","Ok","768","legacy","D:/Studie/Kunstmatige intelligentie/Master/Cognitive modeling/Experiment/subject-1861948.csv","xpyriment","Interactive Ising","3.0.4","0","m","NA","NA","m","344","NA","NA","344","legacy","experiment","1861948","even","legacy","80473","NA","NA","NA","NA","434732","NA","NA","433548","434365","2714","434732","432032","432007","434364","2714","CogMod 2015 Experiment","100","34728","102","yes","1024"
"1","800","-150","15","98.0582524272","98.0582524272","340","340","white","no","xpyriment","legacy","legacy","0","uniform","1","1","z","0","0","0","0","0","102","NA","NA","102","102","0","102","102","102","102","0","11/29/15 20:59:06","Default description","no","mono","no","18","black","Ok","768","legacy","D:/Studie/Kunstmatige intelligentie/Master/Cognitive modeling/Experiment/subject-1861948.csv","xpyriment","Interactive Ising","3.0.4","0","z","NA","NA","z","329","NA","NA","329","legacy","experiment","1861948","even","legacy","80473","NA","NA","NA","NA","438031","NA","NA","436865","437682","2714","438031","435348","435318","437681","2714","CogMod 2015 Experiment","101","35057","103","yes","1024"
"1","1200","150","15","98.0769230769","98.0769230769","340","340","white","no","xpyriment","legacy","legacy","0","uniform","1","1","m","0","0","0","0","0","103","NA","NA","103","103","0","103","103","103","103","0","11/29/15 20:59:06","Default description","no","mono","no","18","black","Ok","768","legacy","D:/Studie/Kunstmatige intelligentie/Master/Cognitive modeling/Experiment/subject-1861948.csv","xpyriment","Interactive Ising","3.0.4","0","m","NA","NA","m","319","NA","NA","319","legacy","experiment","1861948","even","legacy","80473","NA","NA","NA","NA","441664","NA","NA","440115","441332","2714","441665","438598","438585","441331","2714","CogMod 2015 Experiment","102","35376","104","yes","1024"
"1","1600","-150","15","98.0952380952","98.0952380952","339","339","white","no","xpyriment","legacy","legacy","0","uniform","1","1","z","0","0","0","0","0","104","NA","NA","104","104","0","104","104","104","104","0","11/29/15 20:59:06","Default description","no","mono","no","18","black","Ok","768","legacy","D:/Studie/Kunstmatige intelligentie/Master/Cognitive modeling/Experiment/subject-1861948.csv","xpyriment","Interactive Ising","3.0.4","0","z","NA","NA","z","318","NA","NA","318","legacy","experiment","1861948","even","legacy","80473","NA","NA","NA","NA","445748","NA","NA","443799","445415","2714","445749","442282","442260","445415","2714","CogMod 2015 Experiment","103","35694","105","yes","1024"
"1","1200","150","15","98.1132075472","98.1132075472","340","340","white","no","xpyriment","legacy","legacy","0","uniform","1","1","m","0","0","0","0","0","105","NA","NA","105","105","0","105","105","105","105","0","11/29/15 20:59:06","Default description","no","mono","no","18","black","Ok","768","legacy","D:/Studie/Kunstmatige intelligentie/Master/Cognitive modeling/Experiment/subject-1861948.csv","xpyriment","Interactive Ising","3.0.4","0","m","NA","NA","m","448","NA","NA","448","legacy","experiment","1861948","even","legacy","80473","NA","NA","NA","NA","449549","NA","NA","447866","449083","2714","449549","446348","446329","449082","2714","CogMod 2015 Experiment","104","36142","106","yes","1024"
"1","800","150","15","98.1308411215","98.1308411215","341","341","white","no","xpyriment","legacy","legacy","0","uniform","1","1","m","0","0","0","0","0","106","NA","NA","106","106","0","106","106","106","106","0","11/29/15 20:59:06","Default description","no","mono","no","18","black","Ok","768","legacy","D:/Studie/Kunstmatige intelligentie/Master/Cognitive modeling/Experiment/subject-1861948.csv","xpyriment","Interactive Ising","3.0.4","0","m","NA","NA","m","442","NA","NA","442","legacy","experiment","1861948","even","legacy","80473","NA","NA","NA","NA","452949","NA","NA","451665","452483","2714","452949","450149","450128","452482","2714","CogMod 2015 Experiment","105","36584","107","yes","1024"
"1","1600","-150","15","98.1481481481","98.1481481481","341","341","white","no","xpyriment","legacy","legacy","0","uniform","1","1","z","0","0","0","0","0","107","NA","NA","107","107","0","107","107","107","107","0","11/29/15 20:59:06","Default description","no","mono","no","18","black","Ok","768","legacy","D:/Studie/Kunstmatige intelligentie/Master/Cognitive modeling/Experiment/subject-1861948.csv","xpyriment","Interactive Ising","3.0.4","0","z","NA","NA","z","304","NA","NA","304","legacy","experiment","1861948","even","legacy","80473","NA","NA","NA","NA","456949","NA","NA","455015","456633","2714","456949","453499","453486","456633","2714","CogMod 2015 Experiment","106","36888","108","yes","1024"
"1","1600","-150","15","98.1651376147","98.1651376147","341","341","white","no","xpyriment","legacy","legacy","0","uniform","1","1","z","0","0","0","0","0","108","NA","NA","108","108","0","108","108","108","108","0","11/29/15 20:59:06","Default description","no","mono","no","18","black","Ok","768","legacy","D:/Studie/Kunstmatige intelligentie/Master/Cognitive modeling/Experiment/subject-1861948.csv","xpyriment","Interactive Ising","3.0.4","0","z","NA","NA","z","328","NA","NA","328","legacy","experiment","1861948","even","legacy","80473","NA","NA","NA","NA","461032","NA","NA","459066","460683","2714","461032","457549","457528","460682","2714","CogMod 2015 Experiment","107","37216","109","yes","1024"
"1","1600","150","15","98.1818181818","98.1818181818","341","341","white","no","xpyriment","legacy","legacy","0","uniform","1","1","m","0","0","0","0","0","109","NA","NA","109","109","0","109","109","109","109","0","11/29/15 20:59:06","Default description","no","mono","no","18","black","Ok","768","legacy","D:/Studie/Kunstmatige intelligentie/Master/Cognitive modeling/Experiment/subject-1861948.csv","xpyriment","Interactive Ising","3.0.4","0","m","NA","NA","m","349","NA","NA","349","legacy","experiment","1861948","even","legacy","80473","NA","NA","NA","NA","465132","NA","NA","463149","464766","2714","465132","461632","461621","464766","2714","CogMod 2015 Experiment","108","37565","110","yes","1024"
"1","1600","-150","15","98.1981981982","98.1981981982","341","341","white","no","xpyriment","legacy","legacy","0","uniform","1","1","z","0","0","0","0","0","110","NA","NA","110","110","0","110","110","110","110","0","11/29/15 20:59:06","Default description","no","mono","no","18","black","Ok","768","legacy","D:/Studie/Kunstmatige intelligentie/Master/Cognitive modeling/Experiment/subject-1861948.csv","xpyriment","Interactive Ising","3.0.4","0","z","NA","NA","z","308","NA","NA","308","legacy","experiment","1861948","even","legacy","80473","NA","NA","NA","NA","469183","NA","NA","467233","468850","2714","469183","465716","465701","468849","2714","CogMod 2015 Experiment","109","37873","111","yes","1024"
"1","800","150","15","98.2142857143","98.2142857143","341","341","white","no","xpyriment","legacy","legacy","0","uniform","1","1","m","0","0","0","0","0","111","NA","NA","111","111","0","111","111","111","111","0","11/29/15 20:59:06","Default description","no","mono","no","18","black","Ok","768","legacy","D:/Studie/Kunstmatige intelligentie/Master/Cognitive modeling/Experiment/subject-1861948.csv","xpyriment","Interactive Ising","3.0.4","0","m","NA","NA","m","405","NA","NA","405","legacy","experiment","1861948","even","legacy","80473","NA","NA","NA","NA","472532","NA","NA","471299","472116","2714","472532","469783","469769","472116","2714","CogMod 2015 Experiment","110","38278","112","yes","1024"
"1","1200","-150","15","98.2300884956","98.2300884956","341","341","white","no","xpyriment","legacy","legacy","0","uniform","1","1","z","0","0","0","0","0","112","NA","NA","112","112","0","112","112","112","112","0","11/29/15 20:59:06","Default description","no","mono","no","18","black","Ok","768","legacy","D:/Studie/Kunstmatige intelligentie/Master/Cognitive modeling/Experiment/subject-1861948.csv","xpyriment","Interactive Ising","3.0.4","0","z","NA","NA","z","344","NA","NA","344","legacy","experiment","1861948","even","legacy","80473","NA","NA","NA","NA","476216","NA","NA","474633","475850","2714","476216","473116","473106","475850","2714","CogMod 2015 Experiment","111","38622","113","yes","1024"
"1","800","-150","15","98.2456140351","98.2456140351","341","341","white","no","xpyriment","legacy","legacy","0","uniform","1","1","z","0","0","0","0","0","113","NA","NA","113","113","0","113","113","113","113","0","11/29/15 20:59:06","Default description","no","mono","no","18","black","Ok","768","legacy","D:/Studie/Kunstmatige intelligentie/Master/Cognitive modeling/Experiment/subject-1861948.csv","xpyriment","Interactive Ising","3.0.4","0","z","NA","NA","z","329","NA","NA","329","legacy","experiment","1861948","even","legacy","80473","NA","NA","NA","NA","479516","NA","NA","478350","479166","2714","479516","476833","476814","479166","2714","CogMod 2015 Experiment","112","38951","114","yes","1024"
"1","400","-150","15","98.2608695652","98.2608695652","341","341","white","no","xpyriment","legacy","legacy","0","uniform","1","1","z","0","0","0","0","0","114","NA","NA","114","114","0","114","114","114","114","0","11/29/15 20:59:06","Default description","no","mono","no","18","black","Ok","768","legacy","D:/Studie/Kunstmatige intelligentie/Master/Cognitive modeling/Experiment/subject-1861948.csv","xpyriment","Interactive Ising","3.0.4","0","z","NA","NA","z","332","NA","NA","332","legacy","experiment","1861948","even","legacy","80473","NA","NA","NA","NA","482383","NA","NA","481616","482033","2714","482383","480099","480083","482033","2714","CogMod 2015 Experiment","113","39283","115","yes","1024"
"1","800","-150","15","98.275862069","98.275862069","341","341","white","no","xpyriment","legacy","legacy","0","uniform","1","1","z","0","0","0","0","0","115","NA","NA","115","115","0","115","115","115","115","0","11/29/15 20:59:06","Default description","no","mono","no","18","black","Ok","768","legacy","D:/Studie/Kunstmatige intelligentie/Master/Cognitive modeling/Experiment/subject-1861948.csv","xpyriment","Interactive Ising","3.0.4","0","z","NA","NA","z","321","NA","NA","321","legacy","experiment","1861948","even","legacy","80473","NA","NA","NA","NA","485617","NA","NA","484466","485284","2714","485617","482950","482933","485283","2714","CogMod 2015 Experiment","114","39604","116","yes","1024"
"1","400","-150","15","98.2905982906","98.2905982906","341","341","white","no","xpyriment","legacy","legacy","0","uniform","1","1","z","0","0","0","0","0","116","NA","NA","116","116","0","116","116","116","116","0","11/29/15 20:59:06","Default description","no","mono","no","18","black","Ok","768","legacy","D:/Studie/Kunstmatige intelligentie/Master/Cognitive modeling/Experiment/subject-1861948.csv","xpyriment","Interactive Ising","3.0.4","0","z","NA","NA","z","311","NA","NA","311","legacy","experiment","1861948","even","legacy","80473","NA","NA","NA","NA","488466","NA","NA","487716","488133","2714","488466","486200","486191","488133","2714","CogMod 2015 Experiment","115","39915","117","yes","1024"
"1","800","-150","15","98.3050847458","98.3050847458","340","340","white","no","xpyriment","legacy","legacy","0","uniform","1","1","z","0","0","0","0","0","117","NA","NA","117","117","0","117","117","117","117","0","11/29/15 20:59:06","Default description","no","mono","no","18","black","Ok","768","legacy","D:/Studie/Kunstmatige intelligentie/Master/Cognitive modeling/Experiment/subject-1861948.csv","xpyriment","Interactive Ising","3.0.4","0","z","NA","NA","z","270","NA","NA","270","legacy","experiment","1861948","even","legacy","80473","NA","NA","NA","NA","491666","NA","NA","490566","491383","2714","491666","489049","489035","491383","2714","CogMod 2015 Experiment","116","40185","118","yes","1024"
"1","1600","150","15","98.3193277311","98.3193277311","340","340","white","no","xpyriment","legacy","legacy","0","uniform","1","1","m","0","0","0","0","0","118","NA","NA","118","118","0","118","118","118","118","0","11/29/15 20:59:06","Default description","no","mono","no","18","black","Ok","768","legacy","D:/Studie/Kunstmatige intelligentie/Master/Cognitive modeling/Experiment/subject-1861948.csv","xpyriment","Interactive Ising","3.0.4","0","m","NA","NA","m","343","NA","NA","343","legacy","experiment","1861948","even","legacy","80473","NA","NA","NA","NA","495750","NA","NA","493767","495384","2714","495750","492249","492235","495383","2714","CogMod 2015 Experiment","117","40528","119","yes","1024"
"1","1200","150","15","98.3333333333","98.3333333333","340","340","white","no","xpyriment","legacy","legacy","0","uniform","1","1","m","0","0","0","0","0","119","NA","NA","119","119","0","119","119","119","119","0","11/29/15 20:59:06","Default description","no","mono","no","18","black","Ok","768","legacy","D:/Studie/Kunstmatige intelligentie/Master/Cognitive modeling/Experiment/subject-1861948.csv","xpyriment","Interactive Ising","3.0.4","0","m","NA","NA","m","377","NA","NA","377","legacy","experiment","1861948","even","legacy","80473","NA","NA","NA","NA","499483","NA","NA","497866","499084","2714","499484","496350","496334","499084","2714","CogMod 2015 Experiment","118","40905","120","yes","1024"
"2","400","-150","4","0","0","2000","2000","white","no","xpyriment","legacy","legacy","0","uniform","0","0","z","0","0","0","0","0","120","0","NA","120","120","0","120","120","120","120","0","11/29/15 20:59:06","Default description","no","mono","no","18","black","Ok","768","legacy","D:/Studie/Kunstmatige intelligentie/Master/Cognitive modeling/Experiment/subject-1861948.csv","xpyriment","Interactive Ising","3.0.4","0","None","return","NA","None","2000","75801","NA","2000","legacy","experiment","1861948","even","legacy","80473","575884","NA","NA","NA","580335","500083","NA","577902","578319","2714","580335","576385","576374","578319","2714","CogMod 2015 Experiment","0","2000","1","yes","1024"
"2","1200","-150","16","50","50","1308","1308","white","no","xpyriment","legacy","legacy","0","uniform","1","1","z","0","0","0","0","0","121","0","NA","121","121","0","121","121","121","121","0","11/29/15 20:59:06","Default description","no","mono","no","18","black","Ok","768","legacy","D:/Studie/Kunstmatige intelligentie/Master/Cognitive modeling/Experiment/subject-1861948.csv","xpyriment","Interactive Ising","3.0.4","0","z","return","NA","z","617","75801","NA","617","legacy","experiment","1861948","even","legacy","80473","575884","NA","NA","NA","584602","500083","NA","582752","583969","2714","584602","581235","581226","583969","2714","CogMod 2015 Experiment","1","2617","2","yes","1024"
"2","1200","150","16","66.6666666667","66.6666666667","969","969","white","no","xpyriment","legacy","legacy","0","uniform","1","1","m","0","0","0","0","0","122","0","NA","122","122","0","122","122","122","122","0","11/29/15 20:59:06","Default description","no","mono","no","18","black","Ok","768","legacy","D:/Studie/Kunstmatige intelligentie/Master/Cognitive modeling/Experiment/subject-1861948.csv","xpyriment","Interactive Ising","3.0.4","0","m","return","NA","m","290","75801","NA","290","legacy","experiment","1861948","even","legacy","80473","575884","NA","NA","NA","588269","500083","NA","586752","587969","2714","588269","585235","585214","587969","2714","CogMod 2015 Experiment","2","2907","3","yes","1024"
"2","1600","-150","32","75","75","793","793","white","no","xpyriment","legacy","legacy","0","uniform","1","1","z","0","0","0","0","0","123","0","NA","123","123","0","123","123","123","123","0","11/29/15 20:59:06","Default description","no","mono","no","18","black","Ok","768","legacy","D:/Studie/Kunstmatige intelligentie/Master/Cognitive modeling/Experiment/subject-1861948.csv","xpyriment","Interactive Ising","3.0.4","0","z","return","NA","z","265","75801","NA","265","legacy","experiment","1861948","even","legacy","80473","575884","NA","NA","NA","592319","500083","NA","590418","592036","2714","592319","588902","588872","592036","2714","CogMod 2015 Experiment","3","3172","4","yes","1024"
"2","800","150","8","80","80","695","695","white","no","xpyriment","legacy","legacy","0","uniform","1","1","m","0","0","0","0","0","124","0","NA","124","124","0","124","124","124","124","0","11/29/15 20:59:06","Default description","no","mono","no","18","black","Ok","768","legacy","D:/Studie/Kunstmatige intelligentie/Master/Cognitive modeling/Experiment/subject-1861948.csv","xpyriment","Interactive Ising","3.0.4","0","m","return","NA","m","303","75801","NA","303","legacy","experiment","1861948","even","legacy","80473","575884","NA","NA","NA","595586","500083","NA","594452","595269","2714","595586","592936","592922","595269","2714","CogMod 2015 Experiment","4","3475","5","yes","1024"
"2","1600","150","32","83.3333333333","83.3333333333","620","620","white","no","xpyriment","legacy","legacy","0","uniform","1","1","m","0","0","0","0","0","125","0","NA","125","125","0","125","125","125","125","0","11/29/15 20:59:06","Default description","no","mono","no","18","black","Ok","768","legacy","D:/Studie/Kunstmatige intelligentie/Master/Cognitive modeling/Experiment/subject-1861948.csv","xpyriment","Interactive Ising","3.0.4","0","m","return","NA","m","247","75801","NA","247","legacy","experiment","1861948","even","legacy","80473","575884","NA","NA","NA","599602","500083","NA","597719","599336","2714","599602","596202","596188","599335","2714","CogMod 2015 Experiment","5","3722","6","yes","1024"
"2","1600","-150","32","85.7142857143","85.7142857143","568","568","white","no","xpyriment","legacy","legacy","0","uniform","1","1","z","0","0","0","0","0","126","0","NA","126","126","0","126","126","126","126","0","11/29/15 20:59:06","Default description","no","mono","no","18","black","Ok","768","legacy","D:/Studie/Kunstmatige intelligentie/Master/Cognitive modeling/Experiment/subject-1861948.csv","xpyriment","Interactive Ising","3.0.4","0","z","return","NA","z","257","75801","NA","257","legacy","experiment","1861948","even","legacy","80473","575884","NA","NA","NA","603637","500083","NA","601753","603370","2714","603637","600236","600224","603370","2714","CogMod 2015 Experiment","6","3979","7","yes","1024"
"2","1600","-150","32","87.5","87.5","530","530","white","no","xpyriment","legacy","legacy","0","uniform","1","1","z","0","0","0","0","0","127","0","NA","127","127","0","127","127","127","127","0","11/29/15 20:59:06","Default description","no","mono","no","18","black","Ok","768","legacy","D:/Studie/Kunstmatige intelligentie/Master/Cognitive modeling/Experiment/subject-1861948.csv","xpyriment","Interactive Ising","3.0.4","0","z","return","NA","z","268","75801","NA","268","legacy","experiment","1861948","even","legacy","80473","575884","NA","NA","NA","607653","500083","NA","605753","607370","2714","607653","604236","604224","607370","2714","CogMod 2015 Experiment","7","4247","8","yes","1024"
"2","1600","-150","32","88.8888888889","88.8888888889","506","506","white","no","xpyriment","legacy","legacy","0","uniform","1","1","z","0","0","0","0","0","128","0","NA","128","128","0","128","128","128","128","0","11/29/15 20:59:06","Default description","no","mono","no","18","black","Ok","768","legacy","D:/Studie/Kunstmatige intelligentie/Master/Cognitive modeling/Experiment/subject-1861948.csv","xpyriment","Interactive Ising","3.0.4","0","z","return","NA","z","311","75801","NA","311","legacy","experiment","1861948","even","legacy","80473","575884","NA","NA","NA","611703","500083","NA","609753","611370","2714","611703","608236","608221","611370","2714","CogMod 2015 Experiment","8","4558","9","yes","1024"
"2","1200","-150","16","90","90","492","492","white","no","xpyriment","legacy","legacy","0","uniform","1","1","z","0","0","0","0","0","129","0","NA","129","129","0","129","129","129","129","0","11/29/15 20:59:06","Default description","no","mono","no","18","black","Ok","768","legacy","D:/Studie/Kunstmatige intelligentie/Master/Cognitive modeling/Experiment/subject-1861948.csv","xpyriment","Interactive Ising","3.0.4","0","z","return","NA","z","364","75801","NA","364","legacy","experiment","1861948","even","legacy","80473","575884","NA","NA","NA","615403","500083","NA","613803","615020","2714","615403","612286","612277","615020","2714","CogMod 2015 Experiment","9","4922","10","yes","1024"
"2","1600","150","32","90.9090909091","90.9090909091","475","475","white","no","xpyriment","legacy","legacy","0","uniform","1","1","m","0","0","0","0","0","130","0","NA","130","130","0","130","130","130","130","0","11/29/15 20:59:06","Default description","no","mono","no","18","black","Ok","768","legacy","D:/Studie/Kunstmatige intelligentie/Master/Cognitive modeling/Experiment/subject-1861948.csv","xpyriment","Interactive Ising","3.0.4","0","m","return","NA","m","307","75801","NA","307","legacy","experiment","1861948","even","legacy","80473","575884","NA","NA","NA","619436","500083","NA","617503","619120","2714","619436","615986","615964","619120","2714","CogMod 2015 Experiment","10","5229","11","yes","1024"
"2","1600","150","32","91.6666666667","91.6666666667","461","461","white","no","xpyriment","legacy","legacy","0","uniform","1","1","m","0","0","0","0","0","131","0","NA","131","131","0","131","131","131","131","0","11/29/15 20:59:06","Default description","no","mono","no","18","black","Ok","768","legacy","D:/Studie/Kunstmatige intelligentie/Master/Cognitive modeling/Experiment/subject-1861948.csv","xpyriment","Interactive Ising","3.0.4","0","m","return","NA","m","314","75801","NA","314","legacy","experiment","1861948","even","legacy","80473","575884","NA","NA","NA","623469","500083","NA","621520","623136","2714","623469","620003","619984","623136","2714","CogMod 2015 Experiment","11","5543","12","yes","1024"
"2","1600","-150","32","92.3076923077","92.3076923077","447","447","white","no","xpyriment","legacy","legacy","0","uniform","1","1","z","0","0","0","0","0","132","0","NA","132","132","0","132","132","132","132","0","11/29/15 20:59:06","Default description","no","mono","no","18","black","Ok","768","legacy","D:/Studie/Kunstmatige intelligentie/Master/Cognitive modeling/Experiment/subject-1861948.csv","xpyriment","Interactive Ising","3.0.4","0","z","return","NA","z","277","75801","NA","277","legacy","experiment","1861948","even","legacy","80473","575884","NA","NA","NA","627453","500083","NA","625537","627154","2714","627453","624019","624010","627154","2714","CogMod 2015 Experiment","12","5820","13","yes","1024"
"2","800","-150","8","92.8571428571","92.8571428571","437","437","white","no","xpyriment","legacy","legacy","0","uniform","1","1","z","0","0","0","0","0","133","0","NA","133","133","0","133","133","133","133","0","11/29/15 20:59:06","Default description","no","mono","no","18","black","Ok","768","legacy","D:/Studie/Kunstmatige intelligentie/Master/Cognitive modeling/Experiment/subject-1861948.csv","xpyriment","Interactive Ising","3.0.4","0","z","return","NA","z","302","75801","NA","302","legacy","experiment","1861948","even","legacy","80473","575884","NA","NA","NA","630687","500083","NA","629554","630370","2714","630687","628037","628026","630370","2714","CogMod 2015 Experiment","13","6122","14","yes","1024"
"2","1600","150","32","93.3333333333","93.3333333333","429","429","white","no","xpyriment","legacy","legacy","0","uniform","1","1","m","0","0","0","0","0","134","0","NA","134","134","0","134","134","134","134","0","11/29/15 20:59:06","Default description","no","mono","no","18","black","Ok","768","legacy","D:/Studie/Kunstmatige intelligentie/Master/Cognitive modeling/Experiment/subject-1861948.csv","xpyriment","Interactive Ising","3.0.4","0","m","return","NA","m","325","75801","NA","325","legacy","experiment","1861948","even","legacy","80473","575884","NA","NA","NA","634770","500083","NA","632803","634420","2714","634770","631287","631262","634420","2714","CogMod 2015 Experiment","14","6447","15","yes","1024"
"2","1600","150","32","93.75","93.75","421","421","white","no","xpyriment","legacy","legacy","0","uniform","1","1","m","0","0","0","0","0","135","0","NA","135","135","0","135","135","135","135","0","11/29/15 20:59:06","Default description","no","mono","no","18","black","Ok","768","legacy","D:/Studie/Kunstmatige intelligentie/Master/Cognitive modeling/Experiment/subject-1861948.csv","xpyriment","Interactive Ising","3.0.4","0","m","return","NA","m","300","75801","NA","300","legacy","experiment","1861948","even","legacy","80473","575884","NA","NA","NA","638803","500083","NA","636870","638487","2714","638803","635353","635337","638486","2714","CogMod 2015 Experiment","15","6747","16","yes","1024"
"2","1600","150","32","94.1176470588","94.1176470588","413","413","white","no","xpyriment","legacy","legacy","0","uniform","1","1","m","0","0","0","0","0","136","0","NA","136","136","0","136","136","136","136","0","11/29/15 20:59:06","Default description","no","mono","no","18","black","Ok","768","legacy","D:/Studie/Kunstmatige intelligentie/Master/Cognitive modeling/Experiment/subject-1861948.csv","xpyriment","Interactive Ising","3.0.4","0","m","return","NA","m","281","75801","NA","281","legacy","experiment","1861948","even","legacy","80473","575884","NA","NA","NA","642787","500083","NA","640871","642488","2714","642787","639353","639343","642487","2714","CogMod 2015 Experiment","16","7028","17","yes","1024"
"2","1600","-150","32","94.4444444444","94.4444444444","405","405","white","no","xpyriment","legacy","legacy","0","uniform","1","1","z","0","0","0","0","0","137","0","NA","137","137","0","137","137","137","137","0","11/29/15 20:59:06","Default description","no","mono","no","18","black","Ok","768","legacy","D:/Studie/Kunstmatige intelligentie/Master/Cognitive modeling/Experiment/subject-1861948.csv","xpyriment","Interactive Ising","3.0.4","0","z","return","NA","z","263","75801","NA","263","legacy","experiment","1861948","even","legacy","80473","575884","NA","NA","NA","646770","500083","NA","644870","646487","2714","646770","643354","643335","646487","2714","CogMod 2015 Experiment","17","7291","18","yes","1024"
"2","1600","150","32","94.7368421053","94.7368421053","399","399","white","no","xpyriment","legacy","legacy","0","uniform","1","1","m","0","0","0","0","0","138","0","NA","138","138","0","138","138","138","138","0","11/29/15 20:59:06","Default description","no","mono","no","18","black","Ok","768","legacy","D:/Studie/Kunstmatige intelligentie/Master/Cognitive modeling/Experiment/subject-1861948.csv","xpyriment","Interactive Ising","3.0.4","0","m","return","NA","m","305","75801","NA","305","legacy","experiment","1861948","even","legacy","80473","575884","NA","NA","NA","650804","500083","NA","648870","650487","2714","650804","647354","647342","650487","2714","CogMod 2015 Experiment","18","7596","19","yes","1024"
"2","1600","-150","32","95","95","392","392","white","no","xpyriment","legacy","legacy","0","uniform","1","1","z","0","0","0","0","0","139","0","NA","139","139","0","139","139","139","139","0","11/29/15 20:59:06","Default description","no","mono","no","18","black","Ok","768","legacy","D:/Studie/Kunstmatige intelligentie/Master/Cognitive modeling/Experiment/subject-1861948.csv","xpyriment","Interactive Ising","3.0.4","0","z","return","NA","z","252","75801","NA","252","legacy","experiment","1861948","even","legacy","80473","575884","NA","NA","NA","654787","500083","NA","652904","654521","2714","654787","651387","651364","654520","2714","CogMod 2015 Experiment","19","7848","20","yes","1024"
"2","800","-150","8","95.2380952381","95.2380952381","395","395","white","no","xpyriment","legacy","legacy","0","uniform","1","1","z","0","0","0","0","0","140","0","NA","140","140","0","140","140","140","140","0","11/29/15 20:59:06","Default description","no","mono","no","18","black","Ok","768","legacy","D:/Studie/Kunstmatige intelligentie/Master/Cognitive modeling/Experiment/subject-1861948.csv","xpyriment","Interactive Ising","3.0.4","0","z","return","NA","z","449","75801","NA","449","legacy","experiment","1861948","even","legacy","80473","575884","NA","NA","NA","658154","500083","NA","656871","657688","2714","658154","655354","655337","657687","2714","CogMod 2015 Experiment","20","8297","21","yes","1024"
"2","1600","150","32","95.4545454545","95.4545454545","389","389","white","no","xpyriment","legacy","legacy","0","uniform","1","1","m","0","0","0","0","0","141","0","NA","141","141","0","141","141","141","141","0","11/29/15 20:59:06","Default description","no","mono","no","18","black","Ok","768","legacy","D:/Studie/Kunstmatige intelligentie/Master/Cognitive modeling/Experiment/subject-1861948.csv","xpyriment","Interactive Ising","3.0.4","0","m","return","NA","m","275","75801","NA","275","legacy","experiment","1861948","even","legacy","80473","575884","NA","NA","NA","662204","500083","NA","660287","661904","2714","662204","658771","658746","661904","2714","CogMod 2015 Experiment","21","8572","22","yes","1024"
