"Block","Foreperiod","Location","NumRep","acc","accuracy","average_response_time","avg_rt","background","bidi","canvas_backend","clock_backend","color_backend","compensation","coordinates","correct","correct_GetResponse","correct_response","count_Block_1","count_Block_2","count_Block_3","count_Block_4","count_Block_5","count_ClearScreen","count_Feedback","count_Feedback_Final","count_Fixation","count_GetResponse","count_Instructions1","count_LogData","count_PreTrialWait","count_SingleTrial","count_Stimulus","count_experiment","datetime","description","font_bold","font_family","font_italic","font_size","foreground","form_response","height","keyboard_backend","logfile","mouse_backend","opensesame_codename","opensesame_version","repeat_cycle","response","response_Feedback","response_Feedback_Final","response_GetResponse","response_time","response_time_Feedback","response_time_Feedback_Final","response_time_GetResponse","sampler_backend","start","subject_nr","subject_parity","synth_backend","time_Block_1","time_Block_2","time_Block_3","time_Block_4","time_Block_5","time_ClearScreen","time_Feedback","time_Feedback_Final","time_Fixation","time_GetResponse","time_Instructions1","time_LogData","time_PreTrialWait","time_SingleTrial","time_Stimulus","time_experiment","title","total_correct","total_response_time","total_responses","uniform_coordinates","width"
"1","800","150","15","100","100","494","494","white","no","xpyriment","legacy","legacy","0","uniform","1","1","m","0","0","0","0","0","0","NA","NA","0","0","0","0","0","0","0","0","11/29/15 21:12:46","Default description","no","mono","no","18","black","Ok","768","legacy","D:/Dropbox/Studie/Master/Period II/Cognitive Modeling/Assignment Declarative Memory/subject-2202778.csv","xpyriment","Interactive Ising","3.0.4","0","m","NA","NA","m","494","NA","NA","494","legacy","experiment","2202778","even","legacy","27704","NA","NA","NA","NA","30939","NA","NA","29555","30425","1149","30939","28037","28031","30425","1149","CogMod 2015 Experiment","1","494","1","yes","1024"
"1","800","-150","15","100","100","394","394","white","no","xpyriment","legacy","legacy","0","uniform","1","1","z","0","0","0","0","0","1","NA","NA","1","1","0","1","1","1","1","0","11/29/15 21:12:46","Default description","no","mono","no","18","black","Ok","768","legacy","D:/Dropbox/Studie/Master/Period II/Cognitive Modeling/Assignment Declarative Memory/subject-2202778.csv","xpyriment","Interactive Ising","3.0.4","0","z","NA","NA","z","295","NA","NA","295","legacy","experiment","2202778","even","legacy","27704","NA","NA","NA","NA","34108","NA","NA","32991","33808","1149","34108","31473","31456","33808","1149","CogMod 2015 Experiment","2","789","2","yes","1024"
"1","1200","-150","15","100","100","357","357","white","no","xpyriment","legacy","legacy","0","uniform","1","1","z","0","0","0","0","0","2","NA","NA","2","2","0","2","2","2","2","0","11/29/15 21:12:46","Default description","no","mono","no","18","black","Ok","768","legacy","D:/Dropbox/Studie/Master/Period II/Cognitive Modeling/Assignment Declarative Memory/subject-2202778.csv","xpyriment","Interactive Ising","3.0.4","0","z","NA","NA","z","282","NA","NA","282","legacy","experiment","2202778","even","legacy","27704","NA","NA","NA","NA","37561","NA","NA","36044","37261","1149","37561","34526","34511","37261","1149","CogMod 2015 Experiment","3","1071","3","yes","1024"
"1","400","-150","15","100","100","331","331","white","no","xpyriment","legacy","legacy","0","uniform","1","1","z","0","0","0","0","0","3","NA","NA","3","3","0","3","3","3","3","0","11/29/15 21:12:46","Default description","no","mono","no","18","black","Ok","768","legacy","D:/Dropbox/Studie/Master/Period II/Cognitive Modeling/Assignment Declarative Memory/subject-2202778.csv","xpyriment","Interactive Ising","3.0.4","0","z","NA","NA","z","254","NA","NA","254","legacy","experiment","2202778","even","legacy","27704","NA","NA","NA","NA","40180","NA","NA","39496","39913","1149","40180","37978","37961","39913","1149","CogMod 2015 Experiment","4","1325","4","yes","1024"
"1","400","-150","15","100","100","316","316","white","no","xpyriment","legacy","legacy","0","uniform","1","1","z","0","0","0","0","0","4","NA","NA","4","4","0","4","4","4","4","0","11/29/15 21:12:46","Default description","no","mono","no","18","black","Ok","768","legacy","D:/Dropbox/Studie/Master/Period II/Cognitive Modeling/Assignment Declarative Memory/subject-2202778.csv","xpyriment","Interactive Ising","3.0.4","0","z","NA","NA","z","259","NA","NA","259","legacy","experiment","2202778","even","legacy","27704","NA","NA","NA","NA","42782","NA","NA","42098","42515","1149","42782","40580","40576","42515","1149","CogMod 2015 Experiment","5","1584","5","yes","1024"
"1","1600","-150","15","100","100","309","309","white","no","xpyriment","legacy","legacy","0","uniform","1","1","z","0","0","0","0","0","5","NA","NA","5","5","0","5","5","5","5","0","11/29/15 21:12:46","Default description","no","mono","no","18","black","Ok","768","legacy","D:/Dropbox/Studie/Master/Period II/Cognitive Modeling/Assignment Declarative Memory/subject-2202778.csv","xpyriment","Interactive Ising","3.0.4","0","z","NA","NA","z","271","NA","NA","271","legacy","experiment","2202778","even","legacy","27704","NA","NA","NA","NA","46635","NA","NA","44734","46352","1149","46635","43216","43200","46352","1149","CogMod 2015 Experiment","6","1855","6","yes","1024"
"1","1200","-150","15","100","100","298","298","white","no","xpyriment","legacy","legacy","0","uniform","1","1","z","0","0","0","0","0","6","NA","NA","6","6","0","6","6","6","6","0","11/29/15 21:12:46","Default description","no","mono","no","18","black","Ok","768","legacy","D:/Dropbox/Studie/Master/Period II/Cognitive Modeling/Assignment Declarative Memory/subject-2202778.csv","xpyriment","Interactive Ising","3.0.4","0","z","NA","NA","z","235","NA","NA","235","legacy","experiment","2202778","even","legacy","27704","NA","NA","NA","NA","50038","NA","NA","48570","49788","1149","50038","47052","47032","49788","1149","CogMod 2015 Experiment","7","2090","7","yes","1024"
"1","1200","150","15","87.5","87.5","297","297","white","no","xpyriment","legacy","legacy","0","uniform","0","0","m","0","0","0","0","0","7","NA","NA","7","7","0","7","7","7","7","0","11/29/15 21:12:46","Default description","no","mono","no","18","black","Ok","768","legacy","D:/Dropbox/Studie/Master/Period II/Cognitive Modeling/Assignment Declarative Memory/subject-2202778.csv","xpyriment","Interactive Ising","3.0.4","0","z","NA","NA","z","289","NA","NA","289","legacy","experiment","2202778","even","legacy","27704","NA","NA","NA","NA","53474","NA","NA","51956","53174","1149","53474","50439","50432","53174","1149","CogMod 2015 Experiment","7","2379","8","yes","1024"
"1","1600","150","15","88.8888888889","88.8888888889","303","303","white","no","xpyriment","legacy","legacy","0","uniform","1","1","m","0","0","0","0","0","8","NA","NA","8","8","0","8","8","8","8","0","11/29/15 21:12:46","Default description","no","mono","no","18","black","Ok","768","legacy","D:/Dropbox/Studie/Master/Period II/Cognitive Modeling/Assignment Declarative Memory/subject-2202778.csv","xpyriment","Interactive Ising","3.0.4","0","m","NA","NA","m","348","NA","NA","348","legacy","experiment","2202778","even","legacy","27704","NA","NA","NA","NA","57377","NA","NA","55393","57011","1149","57377","53875","53863","57011","1149","CogMod 2015 Experiment","8","2727","9","yes","1024"
"1","1200","-150","15","90","90","309","309","white","no","xpyriment","legacy","legacy","0","uniform","1","1","z","0","0","0","0","0","9","NA","NA","9","9","0","9","9","9","9","0","11/29/15 21:12:46","Default description","no","mono","no","18","black","Ok","768","legacy","D:/Dropbox/Studie/Master/Period II/Cognitive Modeling/Assignment Declarative Memory/subject-2202778.csv","xpyriment","Interactive Ising","3.0.4","0","z","NA","NA","z","364","NA","NA","364","legacy","experiment","2202778","even","legacy","27704","NA","NA","NA","NA","60914","NA","NA","59312","60531","1149","60914","57794","57777","60530","1149","CogMod 2015 Experiment","9","3091","10","yes","1024"
"1","400","150","15","90.9090909091","90.9090909091","317","317","white","no","xpyriment","legacy","legacy","0","uniform","1","1","m","0","0","0","0","0","10","NA","NA","10","10","0","10","10","10","10","0","11/29/15 21:12:46","Default description","no","mono","no","18","black","Ok","768","legacy","D:/Dropbox/Studie/Master/Period II/Cognitive Modeling/Assignment Declarative Memory/subject-2202778.csv","xpyriment","Interactive Ising","3.0.4","0","m","NA","NA","m","398","NA","NA","398","legacy","experiment","2202778","even","legacy","27704","NA","NA","NA","NA","63667","NA","NA","62832","63249","1149","63667","61315","61303","63249","1149","CogMod 2015 Experiment","10","3489","11","yes","1024"
"1","400","-150","15","91.6666666667","91.6666666667","316","316","white","no","xpyriment","legacy","legacy","0","uniform","1","1","z","0","0","0","0","0","11","NA","NA","11","11","0","11","11","11","11","0","11/29/15 21:12:46","Default description","no","mono","no","18","black","Ok","768","legacy","D:/Dropbox/Studie/Master/Period II/Cognitive Modeling/Assignment Declarative Memory/subject-2202778.csv","xpyriment","Interactive Ising","3.0.4","0","z","NA","NA","z","310","NA","NA","310","legacy","experiment","2202778","even","legacy","27704","NA","NA","NA","NA","66318","NA","NA","65584","66001","1149","66318","64067","64055","66001","1149","CogMod 2015 Experiment","11","3799","12","yes","1024"
"1","1200","150","15","92.3076923077","92.3076923077","311","311","white","no","xpyriment","legacy","legacy","0","uniform","1","1","m","0","0","0","0","0","12","NA","NA","12","12","0","12","12","12","12","0","11/29/15 21:12:46","Default description","no","mono","no","18","black","Ok","768","legacy","D:/Dropbox/Studie/Master/Period II/Cognitive Modeling/Assignment Declarative Memory/subject-2202778.csv","xpyriment","Interactive Ising","3.0.4","0","m","NA","NA","m","249","NA","NA","249","legacy","experiment","2202778","even","legacy","27704","NA","NA","NA","NA","69721","NA","NA","68237","69454","1149","69721","66719","66713","69454","1149","CogMod 2015 Experiment","12","4048","13","yes","1024"
"1","1600","150","15","92.8571428571","92.8571428571","311","311","white","no","xpyriment","legacy","legacy","0","uniform","1","1","m","0","0","0","0","0","13","NA","NA","13","13","0","13","13","13","13","0","11/29/15 21:12:46","Default description","no","mono","no","18","black","Ok","768","legacy","D:/Dropbox/Studie/Master/Period II/Cognitive Modeling/Assignment Declarative Memory/subject-2202778.csv","xpyriment","Interactive Ising","3.0.4","0","m","NA","NA","m","308","NA","NA","308","legacy","experiment","2202778","even","legacy","27704","NA","NA","NA","NA","73591","NA","NA","71656","73275","1149","73591","70139","70118","73274","1149","CogMod 2015 Experiment","13","4356","14","yes","1024"
"1","400","150","15","93.3333333333","93.3333333333","313","313","white","no","xpyriment","legacy","legacy","0","uniform","1","1","m","0","0","0","0","0","14","NA","NA","14","14","0","14","14","14","14","0","11/29/15 21:12:46","Default description","no","mono","no","18","black","Ok","768","legacy","D:/Dropbox/Studie/Master/Period II/Cognitive Modeling/Assignment Declarative Memory/subject-2202778.csv","xpyriment","Interactive Ising","3.0.4","0","m","NA","NA","m","343","NA","NA","343","legacy","experiment","2202778","even","legacy","27704","NA","NA","NA","NA","76326","NA","NA","75559","75976","1149","76327","74044","74025","75976","1149","CogMod 2015 Experiment","14","4699","15","yes","1024"
"1","800","150","15","93.75","93.75","312","312","white","no","xpyriment","legacy","legacy","0","uniform","1","1","m","0","0","0","0","0","15","NA","NA","15","15","0","15","15","15","15","0","11/29/15 21:12:46","Default description","no","mono","no","18","black","Ok","768","legacy","D:/Dropbox/Studie/Master/Period II/Cognitive Modeling/Assignment Declarative Memory/subject-2202778.csv","xpyriment","Interactive Ising","3.0.4","0","m","NA","NA","m","297","NA","NA","297","legacy","experiment","2202778","even","legacy","27704","NA","NA","NA","NA","79379","NA","NA","78244","79062","1149","79379","76728","76709","79062","1149","CogMod 2015 Experiment","15","4996","16","yes","1024"
"1","1600","-150","15","94.1176470588","94.1176470588","313","313","white","no","xpyriment","legacy","legacy","0","uniform","1","1","z","0","0","0","0","0","16","NA","NA","16","16","0","16","16","16","16","0","11/29/15 21:12:46","Default description","no","mono","no","18","black","Ok","768","legacy","D:/Dropbox/Studie/Master/Period II/Cognitive Modeling/Assignment Declarative Memory/subject-2202778.csv","xpyriment","Interactive Ising","3.0.4","0","z","NA","NA","z","339","NA","NA","339","legacy","experiment","2202778","even","legacy","27704","NA","NA","NA","NA","83299","NA","NA","81330","82948","1149","83299","79814","79791","82948","1149","CogMod 2015 Experiment","16","5335","17","yes","1024"
"1","800","150","15","94.4444444444","94.4444444444","313","313","white","no","xpyriment","legacy","legacy","0","uniform","1","1","m","0","0","0","0","0","17","NA","NA","17","17","0","17","17","17","17","0","11/29/15 21:12:46","Default description","no","mono","no","18","black","Ok","768","legacy","D:/Dropbox/Studie/Master/Period II/Cognitive Modeling/Assignment Declarative Memory/subject-2202778.csv","xpyriment","Interactive Ising","3.0.4","0","m","NA","NA","m","316","NA","NA","316","legacy","experiment","2202778","even","legacy","27704","NA","NA","NA","NA","86368","NA","NA","85217","86035","1149","86368","83699","83690","86034","1149","CogMod 2015 Experiment","17","5651","18","yes","1024"
"1","400","150","15","94.7368421053","94.7368421053","312","312","white","no","xpyriment","legacy","legacy","0","uniform","1","1","m","0","0","0","0","0","18","NA","NA","18","18","0","18","18","18","18","0","11/29/15 21:12:46","Default description","no","mono","no","18","black","Ok","768","legacy","D:/Dropbox/Studie/Master/Period II/Cognitive Modeling/Assignment Declarative Memory/subject-2202778.csv","xpyriment","Interactive Ising","3.0.4","0","m","NA","NA","m","295","NA","NA","295","legacy","experiment","2202778","even","legacy","27704","NA","NA","NA","NA","89004","NA","NA","88286","88704","1149","89004","86769","86758","88703","1149","CogMod 2015 Experiment","18","5946","19","yes","1024"
"1","1200","150","15","95","95","311","311","white","no","xpyriment","legacy","legacy","0","uniform","1","1","m","0","0","0","0","0","19","NA","NA","19","19","0","19","19","19","19","0","11/29/15 21:12:46","Default description","no","mono","no","18","black","Ok","768","legacy","D:/Dropbox/Studie/Master/Period II/Cognitive Modeling/Assignment Declarative Memory/subject-2202778.csv","xpyriment","Interactive Ising","3.0.4","0","m","NA","NA","m","274","NA","NA","274","legacy","experiment","2202778","even","legacy","27704","NA","NA","NA","NA","92423","NA","NA","90922","92140","1149","92423","89404","89394","92139","1149","CogMod 2015 Experiment","19","6220","20","yes","1024"
"1","1200","150","15","95.2380952381","95.2380952381","309","309","white","no","xpyriment","legacy","legacy","0","uniform","1","1","m","0","0","0","0","0","20","NA","NA","20","20","0","20","20","20","20","0","11/29/15 21:12:46","Default description","no","mono","no","18","black","Ok","768","legacy","D:/Dropbox/Studie/Master/Period II/Cognitive Modeling/Assignment Declarative Memory/subject-2202778.csv","xpyriment","Interactive Ising","3.0.4","0","m","NA","NA","m","280","NA","NA","280","legacy","experiment","2202778","even","legacy","27704","NA","NA","NA","NA","95859","NA","NA","94341","95559","1149","95859","92824","92815","95559","1149","CogMod 2015 Experiment","20","6500","21","yes","1024"
"1","400","-150","15","95.4545454545","95.4545454545","309","309","white","no","xpyriment","legacy","legacy","0","uniform","1","1","z","0","0","0","0","0","21","NA","NA","21","21","0","21","21","21","21","0","11/29/15 21:12:46","Default description","no","mono","no","18","black","Ok","768","legacy","D:/Dropbox/Studie/Master/Period II/Cognitive Modeling/Assignment Declarative Memory/subject-2202778.csv","xpyriment","Interactive Ising","3.0.4","0","z","NA","NA","z","316","NA","NA","316","legacy","experiment","2202778","even","legacy","27704","NA","NA","NA","NA","98528","NA","NA","97777","98195","1149","98528","96260","96248","98194","1149","CogMod 2015 Experiment","21","6816","22","yes","1024"
"1","800","-150","15","95.652173913","95.652173913","308","308","white","no","xpyriment","legacy","legacy","0","uniform","1","1","z","0","0","0","0","0","22","NA","NA","22","22","0","22","22","22","22","0","11/29/15 21:12:46","Default description","no","mono","no","18","black","Ok","768","legacy","D:/Dropbox/Studie/Master/Period II/Cognitive Modeling/Assignment Declarative Memory/subject-2202778.csv","xpyriment","Interactive Ising","3.0.4","0","z","NA","NA","z","286","NA","NA","286","legacy","experiment","2202778","even","legacy","27704","NA","NA","NA","NA","101597","NA","NA","100479","101297","1149","101597","98963","98944","101297","1149","CogMod 2015 Experiment","22","7102","23","yes","1024"
"1","800","-150","15","95.8333333333","95.8333333333","308","308","white","no","xpyriment","legacy","legacy","0","uniform","1","1","z","0","0","0","0","0","23","NA","NA","23","23","0","23","23","23","23","0","11/29/15 21:12:46","Default description","no","mono","no","18","black","Ok","768","legacy","D:/Dropbox/Studie/Master/Period II/Cognitive Modeling/Assignment Declarative Memory/subject-2202778.csv","xpyriment","Interactive Ising","3.0.4","0","z","NA","NA","z","306","NA","NA","306","legacy","experiment","2202778","even","legacy","27704","NA","NA","NA","NA","104649","NA","NA","103515","104333","1149","104649","101998","101980","104333","1149","CogMod 2015 Experiment","23","7408","24","yes","1024"
"1","1600","150","15","96","96","307","307","white","no","xpyriment","legacy","legacy","0","uniform","1","1","m","0","0","0","0","0","24","NA","NA","24","24","0","24","24","24","24","0","11/29/15 21:12:46","Default description","no","mono","no","18","black","Ok","768","legacy","D:/Dropbox/Studie/Master/Period II/Cognitive Modeling/Assignment Declarative Memory/subject-2202778.csv","xpyriment","Interactive Ising","3.0.4","0","m","NA","NA","m","284","NA","NA","284","legacy","experiment","2202778","even","legacy","27704","NA","NA","NA","NA","108503","NA","NA","106585","108203","1149","108503","105068","105049","108203","1149","CogMod 2015 Experiment","24","7692","25","yes","1024"
"1","1200","150","15","96.1538461538","96.1538461538","310","310","white","no","xpyriment","legacy","legacy","0","uniform","1","1","m","0","0","0","0","0","25","NA","NA","25","25","0","25","25","25","25","0","11/29/15 21:12:46","Default description","no","mono","no","18","black","Ok","768","legacy","D:/Dropbox/Studie/Master/Period II/Cognitive Modeling/Assignment Declarative Memory/subject-2202778.csv","xpyriment","Interactive Ising","3.0.4","0","m","NA","NA","m","383","NA","NA","383","legacy","experiment","2202778","even","legacy","27704","NA","NA","NA","NA","112056","NA","NA","110438","111656","1149","112056","108920","108899","111655","1149","CogMod 2015 Experiment","25","8075","26","yes","1024"
"1","400","-150","15","96.2962962963","96.2962962963","315","315","white","no","xpyriment","legacy","legacy","0","uniform","1","1","z","0","0","0","0","0","26","NA","NA","26","26","0","26","26","26","26","0","11/29/15 21:12:46","Default description","no","mono","no","18","black","Ok","768","legacy","D:/Dropbox/Studie/Master/Period II/Cognitive Modeling/Assignment Declarative Memory/subject-2202778.csv","xpyriment","Interactive Ising","3.0.4","0","z","NA","NA","z","447","NA","NA","447","legacy","experiment","2202778","even","legacy","27704","NA","NA","NA","NA","114858","NA","NA","113974","114392","1149","114858","112457","112442","114392","1149","CogMod 2015 Experiment","26","8522","27","yes","1024"
"1","800","150","15","96.4285714286","96.4285714286","316","316","white","no","xpyriment","legacy","legacy","0","uniform","1","1","m","0","0","0","0","0","27","NA","NA","27","27","0","27","27","27","27","0","11/29/15 21:12:46","Default description","no","mono","no","18","black","Ok","768","legacy","D:/Dropbox/Studie/Master/Period II/Cognitive Modeling/Assignment Declarative Memory/subject-2202778.csv","xpyriment","Interactive Ising","3.0.4","0","m","NA","NA","m","333","NA","NA","333","legacy","experiment","2202778","even","legacy","27704","NA","NA","NA","NA","117944","NA","NA","116776","117594","1149","117944","115259","115247","117594","1149","CogMod 2015 Experiment","27","8855","28","yes","1024"
"1","1200","150","15","96.5517241379","96.5517241379","314","314","white","no","xpyriment","legacy","legacy","0","uniform","1","1","m","0","0","0","0","0","28","NA","NA","28","28","0","28","28","28","28","0","11/29/15 21:12:46","Default description","no","mono","no","18","black","Ok","768","legacy","D:/Dropbox/Studie/Master/Period II/Cognitive Modeling/Assignment Declarative Memory/subject-2202778.csv","xpyriment","Interactive Ising","3.0.4","0","m","NA","NA","m","262","NA","NA","262","legacy","experiment","2202778","even","legacy","27704","NA","NA","NA","NA","121380","NA","NA","119879","121097","1149","121380","118362","118341","121097","1149","CogMod 2015 Experiment","28","9117","29","yes","1024"
"1","800","150","15","96.6666666667","96.6666666667","314","314","white","no","xpyriment","legacy","legacy","0","uniform","1","1","m","0","0","0","0","0","29","NA","NA","29","29","0","29","29","29","29","0","11/29/15 21:12:46","Default description","no","mono","no","18","black","Ok","768","legacy","D:/Dropbox/Studie/Master/Period II/Cognitive Modeling/Assignment Declarative Memory/subject-2202778.csv","xpyriment","Interactive Ising","3.0.4","0","m","NA","NA","m","323","NA","NA","323","legacy","experiment","2202778","even","legacy","27704","NA","NA","NA","NA","124466","NA","NA","123315","124132","1149","124466","121798","121777","124132","1149","CogMod 2015 Experiment","29","9440","30","yes","1024"
"1","1200","-150","15","96.7741935484","96.7741935484","314","314","white","no","xpyriment","legacy","legacy","0","uniform","1","1","z","0","0","0","0","0","30","NA","NA","30","30","0","30","30","30","30","0","11/29/15 21:12:46","Default description","no","mono","no","18","black","Ok","768","legacy","D:/Dropbox/Studie/Master/Period II/Cognitive Modeling/Assignment Declarative Memory/subject-2202778.csv","xpyriment","Interactive Ising","3.0.4","0","z","NA","NA","z","301","NA","NA","301","legacy","experiment","2202778","even","legacy","27704","NA","NA","NA","NA","127919","NA","NA","126384","127602","1149","127919","124867","124854","127602","1149","CogMod 2015 Experiment","30","9741","31","yes","1024"
"1","1200","-150","15","96.875","96.875","314","314","white","no","xpyriment","legacy","legacy","0","uniform","1","1","z","0","0","0","0","0","31","NA","NA","31","31","0","31","31","31","31","0","11/29/15 21:12:46","Default description","no","mono","no","18","black","Ok","768","legacy","D:/Dropbox/Studie/Master/Period II/Cognitive Modeling/Assignment Declarative Memory/subject-2202778.csv","xpyriment","Interactive Ising","3.0.4","0","z","NA","NA","z","319","NA","NA","319","legacy","experiment","2202778","even","legacy","27704","NA","NA","NA","NA","131421","NA","NA","129870","131088","1149","131422","128353","128344","131088","1149","CogMod 2015 Experiment","31","10060","32","yes","1024"
"1","1600","150","15","96.9696969697","96.9696969697","314","314","white","no","xpyriment","legacy","legacy","0","uniform","1","1","m","0","0","0","0","0","32","NA","NA","32","32","0","32","32","32","32","0","11/29/15 21:12:46","Default description","no","mono","no","18","black","Ok","768","legacy","D:/Dropbox/Studie/Master/Period II/Cognitive Modeling/Assignment Declarative Memory/subject-2202778.csv","xpyriment","Interactive Ising","3.0.4","0","m","NA","NA","m","313","NA","NA","313","legacy","experiment","2202778","even","legacy","27704","NA","NA","NA","NA","135292","NA","NA","133357","134974","1149","135292","131839","131818","134974","1149","CogMod 2015 Experiment","32","10373","33","yes","1024"
"1","800","150","15","97.0588235294","97.0588235294","314","314","white","no","xpyriment","legacy","legacy","0","uniform","1","1","m","0","0","0","0","0","33","NA","NA","33","33","0","33","33","33","33","0","11/29/15 21:12:46","Default description","no","mono","no","18","black","Ok","768","legacy","D:/Dropbox/Studie/Master/Period II/Cognitive Modeling/Assignment Declarative Memory/subject-2202778.csv","xpyriment","Interactive Ising","3.0.4","0","m","NA","NA","m","307","NA","NA","307","legacy","experiment","2202778","even","legacy","27704","NA","NA","NA","NA","138344","NA","NA","137210","138028","1149","138344","135692","135675","138027","1149","CogMod 2015 Experiment","33","10680","34","yes","1024"
"1","1600","-150","15","97.1428571429","97.1428571429","313","313","white","no","xpyriment","legacy","legacy","0","uniform","1","1","z","0","0","0","0","0","34","NA","NA","34","34","0","34","34","34","34","0","11/29/15 21:12:46","Default description","no","mono","no","18","black","Ok","768","legacy","D:/Dropbox/Studie/Master/Period II/Cognitive Modeling/Assignment Declarative Memory/subject-2202778.csv","xpyriment","Interactive Ising","3.0.4","0","z","NA","NA","z","278","NA","NA","278","legacy","experiment","2202778","even","legacy","27704","NA","NA","NA","NA","142164","NA","NA","140262","141881","1149","142164","138744","138730","141880","1149","CogMod 2015 Experiment","34","10958","35","yes","1024"
"1","1600","150","15","97.2222222222","97.2222222222","312","312","white","no","xpyriment","legacy","legacy","0","uniform","1","1","m","0","0","0","0","0","35","NA","NA","35","35","0","35","35","35","35","0","11/29/15 21:12:46","Default description","no","mono","no","18","black","Ok","768","legacy","D:/Dropbox/Studie/Master/Period II/Cognitive Modeling/Assignment Declarative Memory/subject-2202778.csv","xpyriment","Interactive Ising","3.0.4","0","m","NA","NA","m","307","NA","NA","307","legacy","experiment","2202778","even","legacy","27704","NA","NA","NA","NA","146018","NA","NA","144082","145700","1149","146018","142565","142549","145700","1149","CogMod 2015 Experiment","35","11265","36","yes","1024"
"1","800","-150","15","97.2972972973","97.2972972973","311","311","white","no","xpyriment","legacy","legacy","0","uniform","1","1","z","0","0","0","0","0","36","NA","NA","36","36","0","36","36","36","36","0","11/29/15 21:12:46","Default description","no","mono","no","18","black","Ok","768","legacy","D:/Dropbox/Studie/Master/Period II/Cognitive Modeling/Assignment Declarative Memory/subject-2202778.csv","xpyriment","Interactive Ising","3.0.4","0","z","NA","NA","z","245","NA","NA","245","legacy","experiment","2202778","even","legacy","27704","NA","NA","NA","NA","149020","NA","NA","147952","148770","1149","149020","146434","146415","148770","1149","CogMod 2015 Experiment","36","11510","37","yes","1024"
"1","1200","-150","15","97.3684210526","97.3684210526","309","309","white","no","xpyriment","legacy","legacy","0","uniform","1","1","z","0","0","0","0","0","37","NA","NA","37","37","0","37","37","37","37","0","11/29/15 21:12:46","Default description","no","mono","no","18","black","Ok","768","legacy","D:/Dropbox/Studie/Master/Period II/Cognitive Modeling/Assignment Declarative Memory/subject-2202778.csv","xpyriment","Interactive Ising","3.0.4","0","z","NA","NA","z","267","NA","NA","267","legacy","experiment","2202778","even","legacy","27704","NA","NA","NA","NA","152455","NA","NA","150954","152172","1149","152455","149440","149429","152172","1149","CogMod 2015 Experiment","37","11777","38","yes","1024"
"1","400","150","15","97.4358974359","97.4358974359","310","310","white","no","xpyriment","legacy","legacy","0","uniform","1","1","m","0","0","0","0","0","38","NA","NA","38","38","0","38","38","38","38","0","11/29/15 21:12:46","Default description","no","mono","no","18","black","Ok","768","legacy","D:/Dropbox/Studie/Master/Period II/Cognitive Modeling/Assignment Declarative Memory/subject-2202778.csv","xpyriment","Interactive Ising","3.0.4","0","m","NA","NA","m","328","NA","NA","328","legacy","experiment","2202778","even","legacy","27704","NA","NA","NA","NA","155125","NA","NA","154374","154791","1149","155125","152857","152848","154791","1149","CogMod 2015 Experiment","38","12105","39","yes","1024"
"1","1200","150","15","97.5","97.5","309","309","white","no","xpyriment","legacy","legacy","0","uniform","1","1","m","0","0","0","0","0","39","NA","NA","39","39","0","39","39","39","39","0","11/29/15 21:12:46","Default description","no","mono","no","18","black","Ok","768","legacy","D:/Dropbox/Studie/Master/Period II/Cognitive Modeling/Assignment Declarative Memory/subject-2202778.csv","xpyriment","Interactive Ising","3.0.4","0","m","NA","NA","m","290","NA","NA","290","legacy","experiment","2202778","even","legacy","27704","NA","NA","NA","NA","158560","NA","NA","157043","158261","1149","158561","155526","155509","158260","1149","CogMod 2015 Experiment","39","12395","40","yes","1024"
"1","800","150","15","97.5609756098","97.5609756098","309","309","white","no","xpyriment","legacy","legacy","0","uniform","1","1","m","0","0","0","0","0","40","NA","NA","40","40","0","40","40","40","40","0","11/29/15 21:12:46","Default description","no","mono","no","18","black","Ok","768","legacy","D:/Dropbox/Studie/Master/Period II/Cognitive Modeling/Assignment Declarative Memory/subject-2202778.csv","xpyriment","Interactive Ising","3.0.4","0","m","NA","NA","m","286","NA","NA","286","legacy","experiment","2202778","even","legacy","27704","NA","NA","NA","NA","161613","NA","NA","160496","161313","1149","161613","158978","158957","161313","1149","CogMod 2015 Experiment","40","12681","41","yes","1024"
"1","400","-150","15","97.619047619","97.619047619","308","308","white","no","xpyriment","legacy","legacy","0","uniform","1","1","z","0","0","0","0","0","41","NA","NA","41","41","0","41","41","41","41","0","11/29/15 21:12:46","Default description","no","mono","no","18","black","Ok","768","legacy","D:/Dropbox/Studie/Master/Period II/Cognitive Modeling/Assignment Declarative Memory/subject-2202778.csv","xpyriment","Interactive Ising","3.0.4","0","z","NA","NA","z","258","NA","NA","258","legacy","experiment","2202778","even","legacy","27704","NA","NA","NA","NA","164215","NA","NA","163532","163949","1149","164215","162014","162007","163948","1149","CogMod 2015 Experiment","41","12939","42","yes","1024"
"1","800","150","15","97.6744186047","97.6744186047","307","307","white","no","xpyriment","legacy","legacy","0","uniform","1","1","m","0","0","0","0","0","42","NA","NA","42","42","0","42","42","42","42","0","11/29/15 21:12:46","Default description","no","mono","no","18","black","Ok","768","legacy","D:/Dropbox/Studie/Master/Period II/Cognitive Modeling/Assignment Declarative Memory/subject-2202778.csv","xpyriment","Interactive Ising","3.0.4","0","m","NA","NA","m","288","NA","NA","288","legacy","experiment","2202778","even","legacy","27704","NA","NA","NA","NA","167251","NA","NA","166134","166951","1149","167251","164616","164600","166951","1149","CogMod 2015 Experiment","42","13227","43","yes","1024"
"1","1600","-150","15","97.7272727273","97.7272727273","306","306","white","no","xpyriment","legacy","legacy","0","uniform","1","1","z","0","0","0","0","0","43","NA","NA","43","43","0","43","43","43","43","0","11/29/15 21:12:46","Default description","no","mono","no","18","black","Ok","768","legacy","D:/Dropbox/Studie/Master/Period II/Cognitive Modeling/Assignment Declarative Memory/subject-2202778.csv","xpyriment","Interactive Ising","3.0.4","0","z","NA","NA","z","275","NA","NA","275","legacy","experiment","2202778","even","legacy","27704","NA","NA","NA","NA","171071","NA","NA","169170","170788","1149","171071","167653","167638","170788","1149","CogMod 2015 Experiment","43","13502","44","yes","1024"
"1","1600","150","15","97.7777777778","97.7777777778","306","306","white","no","xpyriment","legacy","legacy","0","uniform","1","1","m","0","0","0","0","0","44","NA","NA","44","44","0","44","44","44","44","0","11/29/15 21:12:46","Default description","no","mono","no","18","black","Ok","768","legacy","D:/Dropbox/Studie/Master/Period II/Cognitive Modeling/Assignment Declarative Memory/subject-2202778.csv","xpyriment","Interactive Ising","3.0.4","0","m","NA","NA","m","285","NA","NA","285","legacy","experiment","2202778","even","legacy","27704","NA","NA","NA","NA","174957","NA","NA","173039","174658","1149","174957","171522","171515","174657","1149","CogMod 2015 Experiment","44","13787","45","yes","1024"
"1","1600","150","15","97.8260869565","97.8260869565","307","307","white","no","xpyriment","legacy","legacy","0","uniform","1","1","m","0","0","0","0","0","45","NA","NA","45","45","0","45","45","45","45","0","11/29/15 21:12:46","Default description","no","mono","no","18","black","Ok","768","legacy","D:/Dropbox/Studie/Master/Period II/Cognitive Modeling/Assignment Declarative Memory/subject-2202778.csv","xpyriment","Interactive Ising","3.0.4","0","m","NA","NA","m","337","NA","NA","337","legacy","experiment","2202778","even","legacy","27704","NA","NA","NA","NA","178844","NA","NA","176876","178494","1149","178844","175359","175349","178494","1149","CogMod 2015 Experiment","45","14124","46","yes","1024"
"1","1600","-150","15","97.8723404255","97.8723404255","305","305","white","no","xpyriment","legacy","legacy","0","uniform","1","1","z","0","0","0","0","0","46","NA","NA","46","46","0","46","46","46","46","0","11/29/15 21:12:46","Default description","no","mono","no","18","black","Ok","768","legacy","D:/Dropbox/Studie/Master/Period II/Cognitive Modeling/Assignment Declarative Memory/subject-2202778.csv","xpyriment","Interactive Ising","3.0.4","0","z","NA","NA","z","240","NA","NA","240","legacy","experiment","2202778","even","legacy","27704","NA","NA","NA","NA","182664","NA","NA","180796","182414","1149","182664","179278","179259","182414","1149","CogMod 2015 Experiment","46","14364","47","yes","1024"
"1","400","150","15","97.9166666667","97.9166666667","308","308","white","no","xpyriment","legacy","legacy","0","uniform","1","1","m","0","0","0","0","0","47","NA","NA","47","47","0","47","47","47","47","0","11/29/15 21:12:46","Default description","no","mono","no","18","black","Ok","768","legacy","D:/Dropbox/Studie/Master/Period II/Cognitive Modeling/Assignment Declarative Memory/subject-2202778.csv","xpyriment","Interactive Ising","3.0.4","0","m","NA","NA","m","456","NA","NA","456","legacy","experiment","2202778","even","legacy","27704","NA","NA","NA","NA","185466","NA","NA","184582","184999","1149","185466","183066","183054","184999","1149","CogMod 2015 Experiment","47","14820","48","yes","1024"
"1","800","-150","15","97.9591836735","97.9591836735","307","307","white","no","xpyriment","legacy","legacy","0","uniform","1","1","z","0","0","0","0","0","48","NA","NA","48","48","0","48","48","48","48","0","11/29/15 21:12:46","Default description","no","mono","no","18","black","Ok","768","legacy","D:/Dropbox/Studie/Master/Period II/Cognitive Modeling/Assignment Declarative Memory/subject-2202778.csv","xpyriment","Interactive Ising","3.0.4","0","z","NA","NA","z","269","NA","NA","269","legacy","experiment","2202778","even","legacy","27704","NA","NA","NA","NA","188485","NA","NA","187384","188202","1149","188485","185867","185859","188202","1149","CogMod 2015 Experiment","48","15089","49","yes","1024"
"1","400","-150","15","98","98","306","306","white","no","xpyriment","legacy","legacy","0","uniform","1","1","z","0","0","0","0","0","49","NA","NA","49","49","0","49","49","49","49","0","11/29/15 21:12:46","Default description","no","mono","no","18","black","Ok","768","legacy","D:/Dropbox/Studie/Master/Period II/Cognitive Modeling/Assignment Declarative Memory/subject-2202778.csv","xpyriment","Interactive Ising","3.0.4","0","z","NA","NA","z","258","NA","NA","258","legacy","experiment","2202778","even","legacy","27704","NA","NA","NA","NA","191104","NA","NA","190420","190837","1149","191104","188903","188886","190837","1149","CogMod 2015 Experiment","49","15347","50","yes","1024"
"1","1600","-150","15","98.0392156863","98.0392156863","306","306","white","no","xpyriment","legacy","legacy","0","uniform","1","1","z","0","0","0","0","0","50","NA","NA","50","50","0","50","50","50","50","0","11/29/15 21:12:46","Default description","no","mono","no","18","black","Ok","768","legacy","D:/Dropbox/Studie/Master/Period II/Cognitive Modeling/Assignment Declarative Memory/subject-2202778.csv","xpyriment","Interactive Ising","3.0.4","0","z","NA","NA","z","269","NA","NA","269","legacy","experiment","2202778","even","legacy","27704","NA","NA","NA","NA","194940","NA","NA","193039","194658","1149","194940","191522","191512","194657","1149","CogMod 2015 Experiment","50","15616","51","yes","1024"
"1","400","-150","15","98.0769230769","98.0769230769","306","306","white","no","xpyriment","legacy","legacy","0","uniform","1","1","z","0","0","0","0","0","51","NA","NA","51","51","0","51","51","51","51","0","11/29/15 21:12:46","Default description","no","mono","no","18","black","Ok","768","legacy","D:/Dropbox/Studie/Master/Period II/Cognitive Modeling/Assignment Declarative Memory/subject-2202778.csv","xpyriment","Interactive Ising","3.0.4","0","z","NA","NA","z","307","NA","NA","307","legacy","experiment","2202778","even","legacy","27704","NA","NA","NA","NA","197593","NA","NA","196859","197276","1149","197593","195341","195334","197276","1149","CogMod 2015 Experiment","51","15923","52","yes","1024"
"1","1600","-150","15","98.1132075472","98.1132075472","305","305","white","no","xpyriment","legacy","legacy","0","uniform","1","1","z","0","0","0","0","0","52","NA","NA","52","52","0","52","52","52","52","0","11/29/15 21:12:46","Default description","no","mono","no","18","black","Ok","768","legacy","D:/Dropbox/Studie/Master/Period II/Cognitive Modeling/Assignment Declarative Memory/subject-2202778.csv","xpyriment","Interactive Ising","3.0.4","0","z","NA","NA","z","270","NA","NA","270","legacy","experiment","2202778","even","legacy","27704","NA","NA","NA","NA","201412","NA","NA","199511","201129","1149","201412","197993","197984","201129","1149","CogMod 2015 Experiment","52","16193","53","yes","1024"
"1","400","-150","15","98.1481481481","98.1481481481","304","304","white","no","xpyriment","legacy","legacy","0","uniform","1","1","z","0","0","0","0","0","53","NA","NA","53","53","0","53","53","53","53","0","11/29/15 21:12:46","Default description","no","mono","no","18","black","Ok","768","legacy","D:/Dropbox/Studie/Master/Period II/Cognitive Modeling/Assignment Declarative Memory/subject-2202778.csv","xpyriment","Interactive Ising","3.0.4","0","z","NA","NA","z","264","NA","NA","264","legacy","experiment","2202778","even","legacy","27704","NA","NA","NA","NA","204098","NA","NA","203398","203815","1149","204098","201881","201867","203815","1149","CogMod 2015 Experiment","53","16457","54","yes","1024"
"1","1600","150","15","98.1818181818","98.1818181818","303","303","white","no","xpyriment","legacy","legacy","0","uniform","1","1","m","0","0","0","0","0","54","NA","NA","54","54","0","54","54","54","54","0","11/29/15 21:12:46","Default description","no","mono","no","18","black","Ok","768","legacy","D:/Dropbox/Studie/Master/Period II/Cognitive Modeling/Assignment Declarative Memory/subject-2202778.csv","xpyriment","Interactive Ising","3.0.4","0","m","NA","NA","m","251","NA","NA","251","legacy","experiment","2202778","even","legacy","27704","NA","NA","NA","NA","207918","NA","NA","206033","207652","1149","207918","204514","204499","207651","1149","CogMod 2015 Experiment","54","16708","55","yes","1024"
"1","1200","-150","15","98.2142857143","98.2142857143","302","302","white","no","xpyriment","legacy","legacy","0","uniform","1","1","z","0","0","0","0","0","55","NA","NA","55","55","0","55","55","55","55","0","11/29/15 21:12:46","Default description","no","mono","no","18","black","Ok","768","legacy","D:/Dropbox/Studie/Master/Period II/Cognitive Modeling/Assignment Declarative Memory/subject-2202778.csv","xpyriment","Interactive Ising","3.0.4","0","z","NA","NA","z","256","NA","NA","256","legacy","experiment","2202778","even","legacy","27704","NA","NA","NA","NA","211337","NA","NA","209853","211071","1149","211337","208336","208316","211071","1149","CogMod 2015 Experiment","55","16964","56","yes","1024"
"1","800","-150","15","98.2456140351","98.2456140351","302","302","white","no","xpyriment","legacy","legacy","0","uniform","1","1","z","0","0","0","0","0","56","NA","NA","56","56","0","56","56","56","56","0","11/29/15 21:12:46","Default description","no","mono","no","18","black","Ok","768","legacy","D:/Dropbox/Studie/Master/Period II/Cognitive Modeling/Assignment Declarative Memory/subject-2202778.csv","xpyriment","Interactive Ising","3.0.4","0","z","NA","NA","z","277","NA","NA","277","legacy","experiment","2202778","even","legacy","27704","NA","NA","NA","NA","214357","NA","NA","213256","214074","1149","214357","211738","211717","214073","1149","CogMod 2015 Experiment","56","17241","57","yes","1024"
"1","400","150","15","98.275862069","98.275862069","302","302","white","no","xpyriment","legacy","legacy","0","uniform","1","1","m","0","0","0","0","0","57","NA","NA","57","57","0","57","57","57","57","0","11/29/15 21:12:46","Default description","no","mono","no","18","black","Ok","768","legacy","D:/Dropbox/Studie/Master/Period II/Cognitive Modeling/Assignment Declarative Memory/subject-2202778.csv","xpyriment","Interactive Ising","3.0.4","0","m","NA","NA","m","282","NA","NA","282","legacy","experiment","2202778","even","legacy","27704","NA","NA","NA","NA","217008","NA","NA","216292","216709","1149","217009","214774","214762","216708","1149","CogMod 2015 Experiment","57","17523","58","yes","1024"
"1","1600","150","15","98.3050847458","98.3050847458","301","301","white","no","xpyriment","legacy","legacy","0","uniform","1","1","m","0","0","0","0","0","58","NA","NA","58","58","0","58","58","58","58","0","11/29/15 21:12:46","Default description","no","mono","no","18","black","Ok","768","legacy","D:/Dropbox/Studie/Master/Period II/Cognitive Modeling/Assignment Declarative Memory/subject-2202778.csv","xpyriment","Interactive Ising","3.0.4","0","m","NA","NA","m","277","NA","NA","277","legacy","experiment","2202778","even","legacy","27704","NA","NA","NA","NA","220845","NA","NA","218944","220562","1149","220845","217426","217406","220561","1149","CogMod 2015 Experiment","58","17800","59","yes","1024"
"1","400","150","15","98.3333333333","98.3333333333","303","303","white","no","xpyriment","legacy","legacy","0","uniform","1","1","m","0","0","0","0","0","59","NA","NA","59","59","0","59","59","59","59","0","11/29/15 21:12:46","Default description","no","mono","no","18","black","Ok","768","legacy","D:/Dropbox/Studie/Master/Period II/Cognitive Modeling/Assignment Declarative Memory/subject-2202778.csv","xpyriment","Interactive Ising","3.0.4","0","m","NA","NA","m","417","NA","NA","417","legacy","experiment","2202778","even","legacy","27704","NA","NA","NA","NA","223630","NA","NA","222780","223198","1149","223631","221262","221248","223197","1149","CogMod 2015 Experiment","59","18217","60","yes","1024"
"1","400","150","15","98.3606557377","98.3606557377","303","303","white","no","xpyriment","legacy","legacy","0","uniform","1","1","m","0","0","0","0","0","60","NA","NA","60","60","0","60","60","60","60","0","11/29/15 21:12:46","Default description","no","mono","no","18","black","Ok","768","legacy","D:/Dropbox/Studie/Master/Period II/Cognitive Modeling/Assignment Declarative Memory/subject-2202778.csv","xpyriment","Interactive Ising","3.0.4","0","m","NA","NA","m","280","NA","NA","280","legacy","experiment","2202778","even","legacy","27704","NA","NA","NA","NA","226282","NA","NA","225566","225983","1149","226282","224048","224028","225983","1149","CogMod 2015 Experiment","60","18497","61","yes","1024"
"1","1600","-150","15","98.3870967742","98.3870967742","301","301","white","no","xpyriment","legacy","legacy","0","uniform","1","1","z","0","0","0","0","0","61","NA","NA","61","61","0","61","61","61","61","0","11/29/15 21:12:46","Default description","no","mono","no","18","black","Ok","768","legacy","D:/Dropbox/Studie/Master/Period II/Cognitive Modeling/Assignment Declarative Memory/subject-2202778.csv","xpyriment","Interactive Ising","3.0.4","0","z","NA","NA","z","226","NA","NA","226","legacy","experiment","2202778","even","legacy","27704","NA","NA","NA","NA","230086","NA","NA","228235","229853","1149","230086","226719","226701","229853","1149","CogMod 2015 Experiment","61","18723","62","yes","1024"
"1","1600","-150","15","98.4126984127","98.4126984127","301","301","white","no","xpyriment","legacy","legacy","0","uniform","1","1","z","0","0","0","0","0","62","NA","NA","62","62","0","62","62","62","62","0","11/29/15 21:12:46","Default description","no","mono","no","18","black","Ok","768","legacy","D:/Dropbox/Studie/Master/Period II/Cognitive Modeling/Assignment Declarative Memory/subject-2202778.csv","xpyriment","Interactive Ising","3.0.4","0","z","NA","NA","z","263","NA","NA","263","legacy","experiment","2202778","even","legacy","27704","NA","NA","NA","NA","233922","NA","NA","232021","233640","1149","233923","230504","230490","233640","1149","CogMod 2015 Experiment","62","18986","63","yes","1024"
"1","1600","-150","15","98.4375","98.4375","300","300","white","no","xpyriment","legacy","legacy","0","uniform","1","1","z","0","0","0","0","0","63","NA","NA","63","63","0","63","63","63","63","0","11/29/15 21:12:46","Default description","no","mono","no","18","black","Ok","768","legacy","D:/Dropbox/Studie/Master/Period II/Cognitive Modeling/Assignment Declarative Memory/subject-2202778.csv","xpyriment","Interactive Ising","3.0.4","0","z","NA","NA","z","267","NA","NA","267","legacy","experiment","2202778","even","legacy","27704","NA","NA","NA","NA","237759","NA","NA","235858","237476","1149","237759","234340","234320","237476","1149","CogMod 2015 Experiment","63","19253","64","yes","1024"
"1","1200","150","15","98.4615384615","98.4615384615","300","300","white","no","xpyriment","legacy","legacy","0","uniform","1","1","m","0","0","0","0","0","64","NA","NA","64","64","0","64","64","64","64","0","11/29/15 21:12:46","Default description","no","mono","no","18","black","Ok","768","legacy","D:/Dropbox/Studie/Master/Period II/Cognitive Modeling/Assignment Declarative Memory/subject-2202778.csv","xpyriment","Interactive Ising","3.0.4","0","m","NA","NA","m","288","NA","NA","288","legacy","experiment","2202778","even","legacy","27704","NA","NA","NA","NA","241195","NA","NA","239678","240895","1149","241195","238160","238148","240895","1149","CogMod 2015 Experiment","64","19541","65","yes","1024"
"1","1200","-150","15","98.4848484848","98.4848484848","300","300","white","no","xpyriment","legacy","legacy","0","uniform","1","1","z","0","0","0","0","0","65","NA","NA","65","65","0","65","65","65","65","0","11/29/15 21:12:46","Default description","no","mono","no","18","black","Ok","768","legacy","D:/Dropbox/Studie/Master/Period II/Cognitive Modeling/Assignment Declarative Memory/subject-2202778.csv","xpyriment","Interactive Ising","3.0.4","0","z","NA","NA","z","275","NA","NA","275","legacy","experiment","2202778","even","legacy","27704","NA","NA","NA","NA","244631","NA","NA","243130","244348","1149","244631","241613","241599","244348","1149","CogMod 2015 Experiment","65","19816","66","yes","1024"
"1","1600","150","15","98.5074626866","98.5074626866","300","300","white","no","xpyriment","legacy","legacy","0","uniform","1","1","m","0","0","0","0","0","66","NA","NA","66","66","0","66","66","66","66","0","11/29/15 21:12:46","Default description","no","mono","no","18","black","Ok","768","legacy","D:/Dropbox/Studie/Master/Period II/Cognitive Modeling/Assignment Declarative Memory/subject-2202778.csv","xpyriment","Interactive Ising","3.0.4","0","m","NA","NA","m","318","NA","NA","318","legacy","experiment","2202778","even","legacy","27704","NA","NA","NA","NA","248518","NA","NA","246567","248185","1149","248518","245049","245031","248185","1149","CogMod 2015 Experiment","66","20134","67","yes","1024"
"1","800","-150","15","98.5294117647","98.5294117647","299","299","white","no","xpyriment","legacy","legacy","0","uniform","1","1","z","0","0","0","0","0","67","NA","NA","67","67","0","67","67","67","67","0","11/29/15 21:12:46","Default description","no","mono","no","18","black","Ok","768","legacy","D:/Dropbox/Studie/Master/Period II/Cognitive Modeling/Assignment Declarative Memory/subject-2202778.csv","xpyriment","Interactive Ising","3.0.4","0","z","NA","NA","z","257","NA","NA","257","legacy","experiment","2202778","even","legacy","27704","NA","NA","NA","NA","251520","NA","NA","250436","251254","1149","251521","248919","248912","251253","1149","CogMod 2015 Experiment","67","20391","68","yes","1024"
"1","1200","150","15","98.5507246377","98.5507246377","300","300","white","no","xpyriment","legacy","legacy","0","uniform","1","1","m","0","0","0","0","0","68","NA","NA","68","68","0","68","68","68","68","0","11/29/15 21:12:46","Default description","no","mono","no","18","black","Ok","768","legacy","D:/Dropbox/Studie/Master/Period II/Cognitive Modeling/Assignment Declarative Memory/subject-2202778.csv","xpyriment","Interactive Ising","3.0.4","0","m","NA","NA","m","326","NA","NA","326","legacy","experiment","2202778","even","legacy","27704","NA","NA","NA","NA","255007","NA","NA","253455","254673","1149","255007","251938","251920","254673","1149","CogMod 2015 Experiment","68","20717","69","yes","1024"
"1","400","-150","15","98.5714285714","98.5714285714","299","299","white","no","xpyriment","legacy","legacy","0","uniform","1","1","z","0","0","0","0","0","69","NA","NA","69","69","0","69","69","69","69","0","11/29/15 21:12:46","Default description","no","mono","no","18","black","Ok","768","legacy","D:/Dropbox/Studie/Master/Period II/Cognitive Modeling/Assignment Declarative Memory/subject-2202778.csv","xpyriment","Interactive Ising","3.0.4","0","z","NA","NA","z","257","NA","NA","257","legacy","experiment","2202778","even","legacy","27704","NA","NA","NA","NA","257625","NA","NA","256941","257358","1149","257625","255424","255406","257358","1149","CogMod 2015 Experiment","69","20974","70","yes","1024"
"1","400","150","15","98.5915492958","98.5915492958","300","300","white","no","xpyriment","legacy","legacy","0","uniform","1","1","m","0","0","0","0","0","70","NA","NA","70","70","0","70","70","70","70","0","11/29/15 21:12:46","Default description","no","mono","no","18","black","Ok","768","legacy","D:/Dropbox/Studie/Master/Period II/Cognitive Modeling/Assignment Declarative Memory/subject-2202778.csv","xpyriment","Interactive Ising","3.0.4","0","m","NA","NA","m","333","NA","NA","333","legacy","experiment","2202778","even","legacy","27704","NA","NA","NA","NA","260327","NA","NA","259560","259978","1149","260327","258043","258025","259978","1149","CogMod 2015 Experiment","70","21307","71","yes","1024"
"1","1200","150","15","98.6111111111","98.6111111111","300","300","white","no","xpyriment","legacy","legacy","0","uniform","1","1","m","0","0","0","0","0","71","NA","NA","71","71","0","71","71","71","71","0","11/29/15 21:12:46","Default description","no","mono","no","18","black","Ok","768","legacy","D:/Dropbox/Studie/Master/Period II/Cognitive Modeling/Assignment Declarative Memory/subject-2202778.csv","xpyriment","Interactive Ising","3.0.4","0","m","NA","NA","m","319","NA","NA","319","legacy","experiment","2202778","even","legacy","27704","NA","NA","NA","NA","263797","NA","NA","262246","263464","1149","263797","260729","260712","263464","1149","CogMod 2015 Experiment","71","21626","72","yes","1024"
"1","400","150","15","98.6301369863","98.6301369863","300","300","white","no","xpyriment","legacy","legacy","0","uniform","1","1","m","0","0","0","0","0","72","NA","NA","72","72","0","72","72","72","72","0","11/29/15 21:12:46","Default description","no","mono","no","18","black","Ok","768","legacy","D:/Dropbox/Studie/Master/Period II/Cognitive Modeling/Assignment Declarative Memory/subject-2202778.csv","xpyriment","Interactive Ising","3.0.4","0","m","NA","NA","m","339","NA","NA","339","legacy","experiment","2202778","even","legacy","27704","NA","NA","NA","NA","266483","NA","NA","265716","266132","1149","266483","264199","264186","266132","1149","CogMod 2015 Experiment","72","21965","73","yes","1024"
"1","800","-150","15","98.6486486486","98.6486486486","300","300","white","no","xpyriment","legacy","legacy","0","uniform","1","1","z","0","0","0","0","0","73","NA","NA","73","73","0","73","73","73","73","0","11/29/15 21:12:46","Default description","no","mono","no","18","black","Ok","768","legacy","D:/Dropbox/Studie/Master/Period II/Cognitive Modeling/Assignment Declarative Memory/subject-2202778.csv","xpyriment","Interactive Ising","3.0.4","0","z","NA","NA","z","284","NA","NA","284","legacy","experiment","2202778","even","legacy","27704","NA","NA","NA","NA","269518","NA","NA","268401","269219","1149","269518","266884","266863","269218","1149","CogMod 2015 Experiment","73","22249","74","yes","1024"
"1","400","-150","15","98.6666666667","98.6666666667","300","300","white","no","xpyriment","legacy","legacy","0","uniform","1","1","z","0","0","0","0","0","74","NA","NA","74","74","0","74","74","74","74","0","11/29/15 21:12:46","Default description","no","mono","no","18","black","Ok","768","legacy","D:/Dropbox/Studie/Master/Period II/Cognitive Modeling/Assignment Declarative Memory/subject-2202778.csv","xpyriment","Interactive Ising","3.0.4","0","z","NA","NA","z","288","NA","NA","288","legacy","experiment","2202778","even","legacy","27704","NA","NA","NA","NA","272171","NA","NA","271453","271871","1149","272171","269936","269920","271871","1149","CogMod 2015 Experiment","74","22537","75","yes","1024"
"1","1200","150","15","98.6842105263","98.6842105263","299","299","white","no","xpyriment","legacy","legacy","0","uniform","1","1","m","0","0","0","0","0","75","NA","NA","75","75","0","75","75","75","75","0","11/29/15 21:12:46","Default description","no","mono","no","18","black","Ok","768","legacy","D:/Dropbox/Studie/Master/Period II/Cognitive Modeling/Assignment Declarative Memory/subject-2202778.csv","xpyriment","Interactive Ising","3.0.4","0","m","NA","NA","m","259","NA","NA","259","legacy","experiment","2202778","even","legacy","27704","NA","NA","NA","NA","275590","NA","NA","274105","275324","1149","275590","272588","272569","275323","1149","CogMod 2015 Experiment","75","22796","76","yes","1024"
"1","800","-150","15","98.7012987013","98.7012987013","299","299","white","no","xpyriment","legacy","legacy","0","uniform","1","1","z","0","0","0","0","0","76","NA","NA","76","76","0","76","76","76","76","0","11/29/15 21:12:46","Default description","no","mono","no","18","black","Ok","768","legacy","D:/Dropbox/Studie/Master/Period II/Cognitive Modeling/Assignment Declarative Memory/subject-2202778.csv","xpyriment","Interactive Ising","3.0.4","0","z","NA","NA","z","256","NA","NA","256","legacy","experiment","2202778","even","legacy","27704","NA","NA","NA","NA","278609","NA","NA","277525","278343","1149","278609","276007","275986","278342","1149","CogMod 2015 Experiment","76","23052","77","yes","1024"
"1","400","150","15","98.7179487179","98.7179487179","300","300","white","no","xpyriment","legacy","legacy","0","uniform","1","1","m","0","0","0","0","0","77","NA","NA","77","77","0","77","77","77","77","0","11/29/15 21:12:46","Default description","no","mono","no","18","black","Ok","768","legacy","D:/Dropbox/Studie/Master/Period II/Cognitive Modeling/Assignment Declarative Memory/subject-2202778.csv","xpyriment","Interactive Ising","3.0.4","0","m","NA","NA","m","358","NA","NA","358","legacy","experiment","2202778","even","legacy","27704","NA","NA","NA","NA","281295","NA","NA","280511","280928","1149","281295","278993","278988","280928","1149","CogMod 2015 Experiment","77","23410","78","yes","1024"
"1","1600","-150","15","98.7341772152","98.7341772152","299","299","white","no","xpyriment","legacy","legacy","0","uniform","1","1","z","0","0","0","0","0","78","NA","NA","78","78","0","78","78","78","78","0","11/29/15 21:12:46","Default description","no","mono","no","18","black","Ok","768","legacy","D:/Dropbox/Studie/Master/Period II/Cognitive Modeling/Assignment Declarative Memory/subject-2202778.csv","xpyriment","Interactive Ising","3.0.4","0","z","NA","NA","z","239","NA","NA","239","legacy","experiment","2202778","even","legacy","27704","NA","NA","NA","NA","285098","NA","NA","283230","284848","1149","285098","281713","281693","284848","1149","CogMod 2015 Experiment","78","23649","79","yes","1024"
"1","800","150","15","98.75","98.75","299","299","white","no","xpyriment","legacy","legacy","0","uniform","1","1","m","0","0","0","0","0","79","NA","NA","79","79","0","79","79","79","79","0","11/29/15 21:12:46","Default description","no","mono","no","18","black","Ok","768","legacy","D:/Dropbox/Studie/Master/Period II/Cognitive Modeling/Assignment Declarative Memory/subject-2202778.csv","xpyriment","Interactive Ising","3.0.4","0","m","NA","NA","m","331","NA","NA","331","legacy","experiment","2202778","even","legacy","27704","NA","NA","NA","NA","288200","NA","NA","287033","287852","1149","288200","285516","285496","287851","1149","CogMod 2015 Experiment","79","23980","80","yes","1024"
"1","400","150","15","98.7654320988","98.7654320988","299","299","white","no","xpyriment","legacy","legacy","0","uniform","1","1","m","0","0","0","0","0","80","NA","NA","80","80","0","80","80","80","80","0","11/29/15 21:12:46","Default description","no","mono","no","18","black","Ok","768","legacy","D:/Dropbox/Studie/Master/Period II/Cognitive Modeling/Assignment Declarative Memory/subject-2202778.csv","xpyriment","Interactive Ising","3.0.4","0","m","NA","NA","m","279","NA","NA","279","legacy","experiment","2202778","even","legacy","27704","NA","NA","NA","NA","290819","NA","NA","290119","290536","1149","290820","288602","288583","290536","1149","CogMod 2015 Experiment","80","24259","81","yes","1024"
"1","400","150","15","98.7804878049","98.7804878049","299","299","white","no","xpyriment","legacy","legacy","0","uniform","1","1","m","0","0","0","0","0","81","NA","NA","81","81","0","81","81","81","81","0","11/29/15 21:12:46","Default description","no","mono","no","18","black","Ok","768","legacy","D:/Dropbox/Studie/Master/Period II/Cognitive Modeling/Assignment Declarative Memory/subject-2202778.csv","xpyriment","Interactive Ising","3.0.4","0","m","NA","NA","m","267","NA","NA","267","legacy","experiment","2202778","even","legacy","27704","NA","NA","NA","NA","293471","NA","NA","292771","293188","1149","293471","291253","291238","293188","1149","CogMod 2015 Experiment","81","24526","82","yes","1024"
"1","800","-150","15","98.7951807229","98.7951807229","299","299","white","no","xpyriment","legacy","legacy","0","uniform","1","1","z","0","0","0","0","0","82","NA","NA","82","82","0","82","82","82","82","0","11/29/15 21:12:46","Default description","no","mono","no","18","black","Ok","768","legacy","D:/Dropbox/Studie/Master/Period II/Cognitive Modeling/Assignment Declarative Memory/subject-2202778.csv","xpyriment","Interactive Ising","3.0.4","0","z","NA","NA","z","335","NA","NA","335","legacy","experiment","2202778","even","legacy","27704","NA","NA","NA","NA","296574","NA","NA","295406","296224","1149","296574","293890","293871","296224","1149","CogMod 2015 Experiment","82","24861","83","yes","1024"
"1","1600","-150","15","98.8095238095","98.8095238095","299","299","white","no","xpyriment","legacy","legacy","0","uniform","1","1","z","0","0","0","0","0","83","NA","NA","83","83","0","83","83","83","83","0","11/29/15 21:12:46","Default description","no","mono","no","18","black","Ok","768","legacy","D:/Dropbox/Studie/Master/Period II/Cognitive Modeling/Assignment Declarative Memory/subject-2202778.csv","xpyriment","Interactive Ising","3.0.4","0","z","NA","NA","z","255","NA","NA","255","legacy","experiment","2202778","even","legacy","27704","NA","NA","NA","NA","300394","NA","NA","298509","300128","1149","300394","296992","296971","300127","1149","CogMod 2015 Experiment","83","25116","84","yes","1024"
"1","800","150","15","98.8235294118","98.8235294118","298","298","white","no","xpyriment","legacy","legacy","0","uniform","1","1","m","0","0","0","0","0","84","NA","NA","84","84","0","84","84","84","84","0","11/29/15 21:12:46","Default description","no","mono","no","18","black","Ok","768","legacy","D:/Dropbox/Studie/Master/Period II/Cognitive Modeling/Assignment Declarative Memory/subject-2202778.csv","xpyriment","Interactive Ising","3.0.4","0","m","NA","NA","m","275","NA","NA","275","legacy","experiment","2202778","even","legacy","27704","NA","NA","NA","NA","303430","NA","NA","302329","303148","1149","303430","300814","300801","303147","1149","CogMod 2015 Experiment","84","25391","85","yes","1024"
"1","1200","-150","15","98.8372093023","98.8372093023","298","298","white","no","xpyriment","legacy","legacy","0","uniform","1","1","z","0","0","0","0","0","85","NA","NA","85","85","0","85","85","85","85","0","11/29/15 21:12:46","Default description","no","mono","no","18","black","Ok","768","legacy","D:/Dropbox/Studie/Master/Period II/Cognitive Modeling/Assignment Declarative Memory/subject-2202778.csv","xpyriment","Interactive Ising","3.0.4","0","z","NA","NA","z","255","NA","NA","255","legacy","experiment","2202778","even","legacy","27704","NA","NA","NA","NA","306849","NA","NA","305365","306584","1149","306849","303847","303830","306583","1149","CogMod 2015 Experiment","85","25646","86","yes","1024"
"1","800","-150","15","98.8505747126","98.8505747126","297","297","white","no","xpyriment","legacy","legacy","0","uniform","1","1","z","0","0","0","0","0","86","NA","NA","86","86","0","86","86","86","86","0","11/29/15 21:12:46","Default description","no","mono","no","18","black","Ok","768","legacy","D:/Dropbox/Studie/Master/Period II/Cognitive Modeling/Assignment Declarative Memory/subject-2202778.csv","xpyriment","Interactive Ising","3.0.4","0","z","NA","NA","z","269","NA","NA","269","legacy","experiment","2202778","even","legacy","27704","NA","NA","NA","NA","309885","NA","NA","308785","309602","1149","309885","307267","307245","309602","1149","CogMod 2015 Experiment","86","25915","87","yes","1024"
"1","800","150","15","98.8636363636","98.8636363636","297","297","white","no","xpyriment","legacy","legacy","0","uniform","1","1","m","0","0","0","0","0","87","NA","NA","87","87","0","87","87","87","87","0","11/29/15 21:12:46","Default description","no","mono","no","18","black","Ok","768","legacy","D:/Dropbox/Studie/Master/Period II/Cognitive Modeling/Assignment Declarative Memory/subject-2202778.csv","xpyriment","Interactive Ising","3.0.4","0","m","NA","NA","m","280","NA","NA","280","legacy","experiment","2202778","even","legacy","27704","NA","NA","NA","NA","312954","NA","NA","311837","312654","1149","312954","310319","310300","312654","1149","CogMod 2015 Experiment","87","26195","88","yes","1024"
"1","800","150","15","98.8764044944","98.8764044944","297","297","white","no","xpyriment","legacy","legacy","0","uniform","1","1","m","0","0","0","0","0","88","NA","NA","88","88","0","88","88","88","88","0","11/29/15 21:12:46","Default description","no","mono","no","18","black","Ok","768","legacy","D:/Dropbox/Studie/Master/Period II/Cognitive Modeling/Assignment Declarative Memory/subject-2202778.csv","xpyriment","Interactive Ising","3.0.4","0","m","NA","NA","m","316","NA","NA","316","legacy","experiment","2202778","even","legacy","27704","NA","NA","NA","NA","316023","NA","NA","314872","315690","1149","316023","313355","313348","315690","1149","CogMod 2015 Experiment","88","26511","89","yes","1024"
"1","1200","150","15","98.8888888889","98.8888888889","297","297","white","no","xpyriment","legacy","legacy","0","uniform","1","1","m","0","0","0","0","0","89","NA","NA","89","89","0","89","89","89","89","0","11/29/15 21:12:46","Default description","no","mono","no","18","black","Ok","768","legacy","D:/Dropbox/Studie/Master/Period II/Cognitive Modeling/Assignment Declarative Memory/subject-2202778.csv","xpyriment","Interactive Ising","3.0.4","0","m","NA","NA","m","280","NA","NA","280","legacy","experiment","2202778","even","legacy","27704","NA","NA","NA","NA","319460","NA","NA","317942","319159","1149","319460","316424","316409","319159","1149","CogMod 2015 Experiment","89","26791","90","yes","1024"
"1","1600","150","15","98.9010989011","98.9010989011","297","297","white","no","xpyriment","legacy","legacy","0","uniform","1","1","m","0","0","0","0","0","90","NA","NA","90","90","0","90","90","90","90","0","11/29/15 21:12:46","Default description","no","mono","no","18","black","Ok","768","legacy","D:/Dropbox/Studie/Master/Period II/Cognitive Modeling/Assignment Declarative Memory/subject-2202778.csv","xpyriment","Interactive Ising","3.0.4","0","m","NA","NA","m","298","NA","NA","298","legacy","experiment","2202778","even","legacy","27704","NA","NA","NA","NA","323329","NA","NA","321394","323013","1149","323329","319877","319861","323013","1149","CogMod 2015 Experiment","90","27089","91","yes","1024"
"1","1600","-150","15","98.9130434783","98.9130434783","297","297","white","no","xpyriment","legacy","legacy","0","uniform","1","1","z","0","0","0","0","0","91","NA","NA","91","91","0","91","91","91","91","0","11/29/15 21:12:46","Default description","no","mono","no","18","black","Ok","768","legacy","D:/Dropbox/Studie/Master/Period II/Cognitive Modeling/Assignment Declarative Memory/subject-2202778.csv","xpyriment","Interactive Ising","3.0.4","0","z","NA","NA","z","308","NA","NA","308","legacy","experiment","2202778","even","legacy","27704","NA","NA","NA","NA","327199","NA","NA","325264","326883","1149","327199","323747","323728","326883","1149","CogMod 2015 Experiment","91","27397","92","yes","1024"
"1","1200","-150","15","98.9247311828","98.9247311828","297","297","white","no","xpyriment","legacy","legacy","0","uniform","1","1","z","0","0","0","0","0","92","NA","NA","92","92","0","92","92","92","92","0","11/29/15 21:12:46","Default description","no","mono","no","18","black","Ok","768","legacy","D:/Dropbox/Studie/Master/Period II/Cognitive Modeling/Assignment Declarative Memory/subject-2202778.csv","xpyriment","Interactive Ising","3.0.4","0","z","NA","NA","z","260","NA","NA","260","legacy","experiment","2202778","even","legacy","27704","NA","NA","NA","NA","330652","NA","NA","329167","330386","1149","330652","327650","327630","330386","1149","CogMod 2015 Experiment","92","27657","93","yes","1024"
"1","400","-150","15","98.9361702128","98.9361702128","297","297","white","no","xpyriment","legacy","legacy","0","uniform","1","1","z","0","0","0","0","0","93","NA","NA","93","93","0","93","93","93","93","0","11/29/15 21:12:46","Default description","no","mono","no","18","black","Ok","768","legacy","D:/Dropbox/Studie/Master/Period II/Cognitive Modeling/Assignment Declarative Memory/subject-2202778.csv","xpyriment","Interactive Ising","3.0.4","0","z","NA","NA","z","307","NA","NA","307","legacy","experiment","2202778","even","legacy","27704","NA","NA","NA","NA","333304","NA","NA","332570","332988","1149","333304","331053","331032","332987","1149","CogMod 2015 Experiment","93","27964","94","yes","1024"
"1","800","-150","15","98.9473684211","98.9473684211","297","297","white","no","xpyriment","legacy","legacy","0","uniform","1","1","z","0","0","0","0","0","94","NA","NA","94","94","0","94","94","94","94","0","11/29/15 21:12:46","Default description","no","mono","no","18","black","Ok","768","legacy","D:/Dropbox/Studie/Master/Period II/Cognitive Modeling/Assignment Declarative Memory/subject-2202778.csv","xpyriment","Interactive Ising","3.0.4","0","z","NA","NA","z","254","NA","NA","254","legacy","experiment","2202778","even","legacy","27704","NA","NA","NA","NA","336324","NA","NA","335239","336057","1149","336324","333721","333704","336056","1149","CogMod 2015 Experiment","94","28218","95","yes","1024"
"1","1200","-150","15","98.9583333333","98.9583333333","296","296","white","no","xpyriment","legacy","legacy","0","uniform","1","1","z","0","0","0","0","0","95","NA","NA","95","95","0","95","95","95","95","0","11/29/15 21:12:46","Default description","no","mono","no","18","black","Ok","768","legacy","D:/Dropbox/Studie/Master/Period II/Cognitive Modeling/Assignment Declarative Memory/subject-2202778.csv","xpyriment","Interactive Ising","3.0.4","0","z","NA","NA","z","235","NA","NA","235","legacy","experiment","2202778","even","legacy","27704","NA","NA","NA","NA","339709","NA","NA","338242","339460","1149","339710","336724","336719","339459","1149","CogMod 2015 Experiment","95","28453","96","yes","1024"
"1","800","-150","15","98.9690721649","98.9690721649","295","295","white","no","xpyriment","legacy","legacy","0","uniform","1","1","z","0","0","0","0","0","96","NA","NA","96","96","0","96","96","96","96","0","11/29/15 21:12:46","Default description","no","mono","no","18","black","Ok","768","legacy","D:/Dropbox/Studie/Master/Period II/Cognitive Modeling/Assignment Declarative Memory/subject-2202778.csv","xpyriment","Interactive Ising","3.0.4","0","z","NA","NA","z","225","NA","NA","225","legacy","experiment","2202778","even","legacy","27704","NA","NA","NA","NA","342679","NA","NA","341628","342446","1149","342679","340110","340101","342445","1149","CogMod 2015 Experiment","96","28678","97","yes","1024"
"1","400","-150","15","98.9795918367","98.9795918367","295","295","white","no","xpyriment","legacy","legacy","0","uniform","1","1","z","0","0","0","0","0","97","NA","NA","97","97","0","97","97","97","97","0","11/29/15 21:12:46","Default description","no","mono","no","18","black","Ok","768","legacy","D:/Dropbox/Studie/Master/Period II/Cognitive Modeling/Assignment Declarative Memory/subject-2202778.csv","xpyriment","Interactive Ising","3.0.4","0","z","NA","NA","z","257","NA","NA","257","legacy","experiment","2202778","even","legacy","27704","NA","NA","NA","NA","345281","NA","NA","344597","345014","1149","345281","343080","343075","345014","1149","CogMod 2015 Experiment","97","28935","98","yes","1024"
"1","400","-150","15","98.9898989899","98.9898989899","295","295","white","no","xpyriment","legacy","legacy","0","uniform","1","1","z","0","0","0","0","0","98","NA","NA","98","98","0","98","98","98","98","0","11/29/15 21:12:46","Default description","no","mono","no","18","black","Ok","768","legacy","D:/Dropbox/Studie/Master/Period II/Cognitive Modeling/Assignment Declarative Memory/subject-2202778.csv","xpyriment","Interactive Ising","3.0.4","0","z","NA","NA","z","270","NA","NA","270","legacy","experiment","2202778","even","legacy","27704","NA","NA","NA","NA","347916","NA","NA","347216","347633","1149","347916","345698","345678","347633","1149","CogMod 2015 Experiment","98","29205","99","yes","1024"
"1","1200","-150","15","99","99","294","294","white","no","xpyriment","legacy","legacy","0","uniform","1","1","z","0","0","0","0","0","99","NA","NA","99","99","0","99","99","99","99","0","11/29/15 21:12:46","Default description","no","mono","no","18","black","Ok","768","legacy","D:/Dropbox/Studie/Master/Period II/Cognitive Modeling/Assignment Declarative Memory/subject-2202778.csv","xpyriment","Interactive Ising","3.0.4","0","z","NA","NA","z","226","NA","NA","226","legacy","experiment","2202778","even","legacy","27704","NA","NA","NA","NA","351286","NA","NA","349835","351053","1149","351286","348318","348311","351052","1149","CogMod 2015 Experiment","99","29431","100","yes","1024"
"1","800","150","15","99.0099009901","99.0099009901","294","294","white","no","xpyriment","legacy","legacy","0","uniform","1","1","m","0","0","0","0","0","100","NA","NA","100","100","0","100","100","100","100","0","11/29/15 21:12:46","Default description","no","mono","no","18","black","Ok","768","legacy","D:/Dropbox/Studie/Master/Period II/Cognitive Modeling/Assignment Declarative Memory/subject-2202778.csv","xpyriment","Interactive Ising","3.0.4","0","m","NA","NA","m","312","NA","NA","312","legacy","experiment","2202778","even","legacy","27704","NA","NA","NA","NA","354354","NA","NA","353204","354022","1149","354354","351686","351671","354021","1149","CogMod 2015 Experiment","100","29743","101","yes","1024"
"1","1200","150","15","99.0196078431","99.0196078431","294","294","white","no","xpyriment","legacy","legacy","0","uniform","1","1","m","0","0","0","0","0","101","NA","NA","101","101","0","101","101","101","101","0","11/29/15 21:12:46","Default description","no","mono","no","18","black","Ok","768","legacy","D:/Dropbox/Studie/Master/Period II/Cognitive Modeling/Assignment Declarative Memory/subject-2202778.csv","xpyriment","Interactive Ising","3.0.4","0","m","NA","NA","m","291","NA","NA","291","legacy","experiment","2202778","even","legacy","27704","NA","NA","NA","NA","357808","NA","NA","356290","357508","1149","357808","354773","354755","357508","1149","CogMod 2015 Experiment","101","30034","102","yes","1024"
"1","400","150","15","99.0291262136","99.0291262136","294","294","white","no","xpyriment","legacy","legacy","0","uniform","1","1","m","0","0","0","0","0","102","NA","NA","102","102","0","102","102","102","102","0","11/29/15 21:12:46","Default description","no","mono","no","18","black","Ok","768","legacy","D:/Dropbox/Studie/Master/Period II/Cognitive Modeling/Assignment Declarative Memory/subject-2202778.csv","xpyriment","Interactive Ising","3.0.4","0","m","NA","NA","m","263","NA","NA","263","legacy","experiment","2202778","even","legacy","27704","NA","NA","NA","NA","360443","NA","NA","359743","360160","1149","360443","358225","358212","360160","1149","CogMod 2015 Experiment","102","30297","103","yes","1024"
"1","1600","150","15","99.0384615385","99.0384615385","293","293","white","no","xpyriment","legacy","legacy","0","uniform","1","1","m","0","0","0","0","0","103","NA","NA","103","103","0","103","103","103","103","0","11/29/15 21:12:46","Default description","no","mono","no","18","black","Ok","768","legacy","D:/Dropbox/Studie/Master/Period II/Cognitive Modeling/Assignment Declarative Memory/subject-2202778.csv","xpyriment","Interactive Ising","3.0.4","0","m","NA","NA","m","274","NA","NA","274","legacy","experiment","2202778","even","legacy","27704","NA","NA","NA","NA","364263","NA","NA","362361","363980","1149","364263","360844","360838","363980","1149","CogMod 2015 Experiment","103","30571","104","yes","1024"
"1","1200","-150","15","99.0476190476","99.0476190476","293","293","white","no","xpyriment","legacy","legacy","0","uniform","1","1","z","0","0","0","0","0","104","NA","NA","104","104","0","104","104","104","104","0","11/29/15 21:12:46","Default description","no","mono","no","18","black","Ok","768","legacy","D:/Dropbox/Studie/Master/Period II/Cognitive Modeling/Assignment Declarative Memory/subject-2202778.csv","xpyriment","Interactive Ising","3.0.4","0","z","NA","NA","z","256","NA","NA","256","legacy","experiment","2202778","even","legacy","27704","NA","NA","NA","NA","367666","NA","NA","366182","367399","1149","367666","364664","364653","367399","1149","CogMod 2015 Experiment","104","30827","105","yes","1024"
"1","800","150","15","99.0566037736","99.0566037736","293","293","white","no","xpyriment","legacy","legacy","0","uniform","1","1","m","0","0","0","0","0","105","NA","NA","105","105","0","105","105","105","105","0","11/29/15 21:12:46","Default description","no","mono","no","18","black","Ok","768","legacy","D:/Dropbox/Studie/Master/Period II/Cognitive Modeling/Assignment Declarative Memory/subject-2202778.csv","xpyriment","Interactive Ising","3.0.4","0","m","NA","NA","m","309","NA","NA","309","legacy","experiment","2202778","even","legacy","27704","NA","NA","NA","NA","370718","NA","NA","369584","370402","1149","370718","368067","368048","370402","1149","CogMod 2015 Experiment","105","31136","106","yes","1024"
"1","1200","-150","15","99.0654205607","99.0654205607","293","293","white","no","xpyriment","legacy","legacy","0","uniform","1","1","z","0","0","0","0","0","106","NA","NA","106","106","0","106","106","106","106","0","11/29/15 21:12:46","Default description","no","mono","no","18","black","Ok","768","legacy","D:/Dropbox/Studie/Master/Period II/Cognitive Modeling/Assignment Declarative Memory/subject-2202778.csv","xpyriment","Interactive Ising","3.0.4","0","z","NA","NA","z","280","NA","NA","280","legacy","experiment","2202778","even","legacy","27704","NA","NA","NA","NA","374171","NA","NA","372654","373871","1149","374171","371136","371119","373871","1149","CogMod 2015 Experiment","106","31416","107","yes","1024"
"1","1200","-150","15","99.0740740741","99.0740740741","293","293","white","no","xpyriment","legacy","legacy","0","uniform","1","1","z","0","0","0","0","0","107","NA","NA","107","107","0","107","107","107","107","0","11/29/15 21:12:46","Default description","no","mono","no","18","black","Ok","768","legacy","D:/Dropbox/Studie/Master/Period II/Cognitive Modeling/Assignment Declarative Memory/subject-2202778.csv","xpyriment","Interactive Ising","3.0.4","0","z","NA","NA","z","257","NA","NA","257","legacy","experiment","2202778","even","legacy","27704","NA","NA","NA","NA","377624","NA","NA","376140","377358","1149","377624","374624","374604","377357","1149","CogMod 2015 Experiment","107","31673","108","yes","1024"
"1","400","150","15","99.0825688073","99.0825688073","293","293","white","no","xpyriment","legacy","legacy","0","uniform","1","1","m","0","0","0","0","0","108","NA","NA","108","108","0","108","108","108","108","0","11/29/15 21:12:46","Default description","no","mono","no","18","black","Ok","768","legacy","D:/Dropbox/Studie/Master/Period II/Cognitive Modeling/Assignment Declarative Memory/subject-2202778.csv","xpyriment","Interactive Ising","3.0.4","0","m","NA","NA","m","343","NA","NA","343","legacy","experiment","2202778","even","legacy","27704","NA","NA","NA","NA","380309","NA","NA","379542","379960","1149","380309","378024","378017","379959","1149","CogMod 2015 Experiment","108","32016","109","yes","1024"
"1","1200","150","15","99.0909090909","99.0909090909","293","293","white","no","xpyriment","legacy","legacy","0","uniform","1","1","m","0","0","0","0","0","109","NA","NA","109","109","0","109","109","109","109","0","11/29/15 21:12:46","Default description","no","mono","no","18","black","Ok","768","legacy","D:/Dropbox/Studie/Master/Period II/Cognitive Modeling/Assignment Declarative Memory/subject-2202778.csv","xpyriment","Interactive Ising","3.0.4","0","m","NA","NA","m","257","NA","NA","257","legacy","experiment","2202778","even","legacy","27704","NA","NA","NA","NA","383712","NA","NA","382228","383446","1149","383712","380711","380705","383446","1149","CogMod 2015 Experiment","109","32273","110","yes","1024"
"1","800","150","15","99.0990990991","99.0990990991","293","293","white","no","xpyriment","legacy","legacy","0","uniform","1","1","m","0","0","0","0","0","110","NA","NA","110","110","0","110","110","110","110","0","11/29/15 21:12:46","Default description","no","mono","no","18","black","Ok","768","legacy","D:/Dropbox/Studie/Master/Period II/Cognitive Modeling/Assignment Declarative Memory/subject-2202778.csv","xpyriment","Interactive Ising","3.0.4","0","m","NA","NA","m","279","NA","NA","279","legacy","experiment","2202778","even","legacy","27704","NA","NA","NA","NA","386731","NA","NA","385631","386448","1149","386731","384113","384095","386448","1149","CogMod 2015 Experiment","110","32552","111","yes","1024"
"1","800","-150","15","99.1071428571","99.1071428571","293","293","white","no","xpyriment","legacy","legacy","0","uniform","1","1","z","0","0","0","0","0","111","NA","NA","111","111","0","111","111","111","111","0","11/29/15 21:12:46","Default description","no","mono","no","18","black","Ok","768","legacy","D:/Dropbox/Studie/Master/Period II/Cognitive Modeling/Assignment Declarative Memory/subject-2202778.csv","xpyriment","Interactive Ising","3.0.4","0","z","NA","NA","z","267","NA","NA","267","legacy","experiment","2202778","even","legacy","27704","NA","NA","NA","NA","389767","NA","NA","388666","389484","1149","389767","387149","387128","389484","1149","CogMod 2015 Experiment","111","32819","112","yes","1024"
"1","1600","150","15","99.1150442478","99.1150442478","293","293","white","no","xpyriment","legacy","legacy","0","uniform","1","1","m","0","0","0","0","0","112","NA","NA","112","112","0","112","112","112","112","0","11/29/15 21:12:46","Default description","no","mono","no","18","black","Ok","768","legacy","D:/Dropbox/Studie/Master/Period II/Cognitive Modeling/Assignment Declarative Memory/subject-2202778.csv","xpyriment","Interactive Ising","3.0.4","0","m","NA","NA","m","319","NA","NA","319","legacy","experiment","2202778","even","legacy","27704","NA","NA","NA","NA","393654","NA","NA","391702","393320","1149","393654","390184","390168","393320","1149","CogMod 2015 Experiment","112","33138","113","yes","1024"
"1","1600","-150","15","99.1228070175","99.1228070175","292","292","white","no","xpyriment","legacy","legacy","0","uniform","1","1","z","0","0","0","0","0","113","NA","NA","113","113","0","113","113","113","113","0","11/29/15 21:12:46","Default description","no","mono","no","18","black","Ok","768","legacy","D:/Dropbox/Studie/Master/Period II/Cognitive Modeling/Assignment Declarative Memory/subject-2202778.csv","xpyriment","Interactive Ising","3.0.4","0","z","NA","NA","z","255","NA","NA","255","legacy","experiment","2202778","even","legacy","27704","NA","NA","NA","NA","397474","NA","NA","395589","397208","1149","397474","394071","394050","397207","1149","CogMod 2015 Experiment","113","33393","114","yes","1024"
"1","800","-150","15","99.1304347826","99.1304347826","292","292","white","no","xpyriment","legacy","legacy","0","uniform","1","1","z","0","0","0","0","0","114","NA","NA","114","114","0","114","114","114","114","0","11/29/15 21:12:46","Default description","no","mono","no","18","black","Ok","768","legacy","D:/Dropbox/Studie/Master/Period II/Cognitive Modeling/Assignment Declarative Memory/subject-2202778.csv","xpyriment","Interactive Ising","3.0.4","0","z","NA","NA","z","246","NA","NA","246","legacy","experiment","2202778","even","legacy","27704","NA","NA","NA","NA","400459","NA","NA","399392","400209","1149","400459","397874","397868","400209","1149","CogMod 2015 Experiment","114","33639","115","yes","1024"
"1","1600","150","15","99.1379310345","99.1379310345","292","292","white","no","xpyriment","legacy","legacy","0","uniform","1","1","m","0","0","0","0","0","115","NA","NA","115","115","0","115","115","115","115","0","11/29/15 21:12:46","Default description","no","mono","no","18","black","Ok","768","legacy","D:/Dropbox/Studie/Master/Period II/Cognitive Modeling/Assignment Declarative Memory/subject-2202778.csv","xpyriment","Interactive Ising","3.0.4","0","m","NA","NA","m","259","NA","NA","259","legacy","experiment","2202778","even","legacy","27704","NA","NA","NA","NA","404279","NA","NA","402394","404012","1149","404279","400877","400857","404012","1149","CogMod 2015 Experiment","115","33898","116","yes","1024"
"1","400","-150","15","99.1452991453","99.1452991453","292","292","white","no","xpyriment","legacy","legacy","0","uniform","1","1","z","0","0","0","0","0","116","NA","NA","116","116","0","116","116","116","116","0","11/29/15 21:12:46","Default description","no","mono","no","18","black","Ok","768","legacy","D:/Dropbox/Studie/Master/Period II/Cognitive Modeling/Assignment Declarative Memory/subject-2202778.csv","xpyriment","Interactive Ising","3.0.4","0","z","NA","NA","z","295","NA","NA","295","legacy","experiment","2202778","even","legacy","27704","NA","NA","NA","NA","406931","NA","NA","406198","406616","1149","406932","404680","404673","406615","1149","CogMod 2015 Experiment","116","34193","117","yes","1024"
"1","1600","-150","15","99.1525423729","99.1525423729","292","292","white","no","xpyriment","legacy","legacy","0","uniform","1","1","z","0","0","0","0","0","117","NA","NA","117","117","0","117","117","117","117","0","11/29/15 21:12:46","Default description","no","mono","no","18","black","Ok","768","legacy","D:/Dropbox/Studie/Master/Period II/Cognitive Modeling/Assignment Declarative Memory/subject-2202778.csv","xpyriment","Interactive Ising","3.0.4","0","z","NA","NA","z","267","NA","NA","267","legacy","experiment","2202778","even","legacy","27704","NA","NA","NA","NA","410751","NA","NA","408850","410468","1149","410751","407332","407324","410468","1149","CogMod 2015 Experiment","117","34460","118","yes","1024"
"1","1200","150","15","99.1596638655","99.1596638655","291","291","white","no","xpyriment","legacy","legacy","0","uniform","1","1","m","0","0","0","0","0","118","NA","NA","118","118","0","118","118","118","118","0","11/29/15 21:12:46","Default description","no","mono","no","18","black","Ok","768","legacy","D:/Dropbox/Studie/Master/Period II/Cognitive Modeling/Assignment Declarative Memory/subject-2202778.csv","xpyriment","Interactive Ising","3.0.4","0","m","NA","NA","m","269","NA","NA","269","legacy","experiment","2202778","even","legacy","27704","NA","NA","NA","NA","414237","NA","NA","412738","413954","1149","414237","411220","411198","413953","1149","CogMod 2015 Experiment","118","34729","119","yes","1024"
"1","1600","150","15","99.1666666667","99.1666666667","291","291","white","no","xpyriment","legacy","legacy","0","uniform","1","1","m","0","0","0","0","0","119","NA","NA","119","119","0","119","119","119","119","0","11/29/15 21:12:46","Default description","no","mono","no","18","black","Ok","768","legacy","D:/Dropbox/Studie/Master/Period II/Cognitive Modeling/Assignment Declarative Memory/subject-2202778.csv","xpyriment","Interactive Ising","3.0.4","0","m","NA","NA","m","273","NA","NA","273","legacy","experiment","2202778","even","legacy","27704","NA","NA","NA","NA","418057","NA","NA","416156","417774","1149","418057","414639","414621","417774","1149","CogMod 2015 Experiment","119","35002","120","yes","1024"
"2","1600","150","32","100","100","267","267","white","no","xpyriment","legacy","legacy","0","uniform","1","1","m","0","0","0","0","0","120","0","NA","120","120","0","120","120","120","120","0","11/29/15 21:12:46","Default description","no","mono","no","18","black","Ok","768","legacy","D:/Dropbox/Studie/Master/Period II/Cognitive Modeling/Assignment Declarative Memory/subject-2202778.csv","xpyriment","Interactive Ising","3.0.4","0","m","space","NA","m","267","104145","NA","267","legacy","experiment","2202778","even","legacy","27704","522704","NA","NA","NA","526463","418558","NA","524562","526180","1149","526463","523044","523023","526180","1149","CogMod 2015 Experiment","1","267","1","yes","1024"
"2","1200","-150","16","100","100","261","261","white","no","xpyriment","legacy","legacy","0","uniform","1","1","z","0","0","0","0","0","121","0","NA","121","121","0","121","121","121","121","0","11/29/15 21:12:46","Default description","no","mono","no","18","black","Ok","768","legacy","D:/Dropbox/Studie/Master/Period II/Cognitive Modeling/Assignment Declarative Memory/subject-2202778.csv","xpyriment","Interactive Ising","3.0.4","0","z","space","NA","z","255","104145","NA","255","legacy","experiment","2202778","even","legacy","27704","522704","NA","NA","NA","530083","418558","NA","528599","529816","1149","530083","527081","527065","529816","1149","CogMod 2015 Experiment","2","522","2","yes","1024"
"2","1600","-150","32","100","100","260","260","white","no","xpyriment","legacy","legacy","0","uniform","1","1","z","0","0","0","0","0","122","0","NA","122","122","0","122","122","122","122","0","11/29/15 21:12:46","Default description","no","mono","no","18","black","Ok","768","legacy","D:/Dropbox/Studie/Master/Period II/Cognitive Modeling/Assignment Declarative Memory/subject-2202778.csv","xpyriment","Interactive Ising","3.0.4","0","z","space","NA","z","260","104145","NA","260","legacy","experiment","2202778","even","legacy","27704","522704","NA","NA","NA","533886","418558","NA","532001","533619","1149","533886","530482","530478","533619","1149","CogMod 2015 Experiment","3","782","3","yes","1024"
"2","1600","150","32","100","100","255","255","white","no","xpyriment","legacy","legacy","0","uniform","1","1","m","0","0","0","0","0","123","0","NA","123","123","0","123","123","123","123","0","11/29/15 21:12:46","Default description","no","mono","no","18","black","Ok","768","legacy","D:/Dropbox/Studie/Master/Period II/Cognitive Modeling/Assignment Declarative Memory/subject-2202778.csv","xpyriment","Interactive Ising","3.0.4","0","m","space","NA","m","240","104145","NA","240","legacy","experiment","2202778","even","legacy","27704","522704","NA","NA","NA","537672","418558","NA","535804","537423","1149","537672","534287","534279","537422","1149","CogMod 2015 Experiment","4","1022","4","yes","1024"
"2","1600","150","32","100","100","251","251","white","no","xpyriment","legacy","legacy","0","uniform","1","1","m","0","0","0","0","0","124","0","NA","124","124","0","124","124","124","124","0","11/29/15 21:12:46","Default description","no","mono","no","18","black","Ok","768","legacy","D:/Dropbox/Studie/Master/Period II/Cognitive Modeling/Assignment Declarative Memory/subject-2202778.csv","xpyriment","Interactive Ising","3.0.4","0","m","space","NA","m","237","104145","NA","237","legacy","experiment","2202778","even","legacy","27704","522704","NA","NA","NA","541475","418558","NA","539608","541226","1149","541475","538091","538073","541224","1149","CogMod 2015 Experiment","5","1259","5","yes","1024"
"2","1600","-150","32","100","100","251","251","white","no","xpyriment","legacy","legacy","0","uniform","1","1","z","0","0","0","0","0","125","0","NA","125","125","0","125","125","125","125","0","11/29/15 21:12:46","Default description","no","mono","no","18","black","Ok","768","legacy","D:/Dropbox/Studie/Master/Period II/Cognitive Modeling/Assignment Declarative Memory/subject-2202778.csv","xpyriment","Interactive Ising","3.0.4","0","z","space","NA","z","251","104145","NA","251","legacy","experiment","2202778","even","legacy","27704","522704","NA","NA","NA","545279","418558","NA","543394","545012","1149","545279","541877","541855","545012","1149","CogMod 2015 Experiment","6","1510","6","yes","1024"
"2","1600","-150","32","100","100","249","249","white","no","xpyriment","legacy","legacy","0","uniform","1","1","z","0","0","0","0","0","126","0","NA","126","126","0","126","126","126","126","0","11/29/15 21:12:46","Default description","no","mono","no","18","black","Ok","768","legacy","D:/Dropbox/Studie/Master/Period II/Cognitive Modeling/Assignment Declarative Memory/subject-2202778.csv","xpyriment","Interactive Ising","3.0.4","0","z","space","NA","z","239","104145","NA","239","legacy","experiment","2202778","even","legacy","27704","522704","NA","NA","NA","549081","418558","NA","547214","548832","1149","549082","545696","545674","548831","1149","CogMod 2015 Experiment","7","1749","7","yes","1024"
"2","800","-150","8","100","100","247","247","white","no","xpyriment","legacy","legacy","0","uniform","1","1","z","0","0","0","0","0","127","0","NA","127","127","0","127","127","127","127","0","11/29/15 21:12:46","Default description","no","mono","no","18","black","Ok","768","legacy","D:/Dropbox/Studie/Master/Period II/Cognitive Modeling/Assignment Declarative Memory/subject-2202778.csv","xpyriment","Interactive Ising","3.0.4","0","z","space","NA","z","229","104145","NA","229","legacy","experiment","2202778","even","legacy","27704","522704","NA","NA","NA","552067","418558","NA","551000","551818","1149","552067","549483","549476","551817","1149","CogMod 2015 Experiment","8","1978","8","yes","1024"
"2","800","-150","8","100","100","246","246","white","no","xpyriment","legacy","legacy","0","uniform","1","1","z","0","0","0","0","0","128","0","NA","128","128","0","128","128","128","128","0","11/29/15 21:12:46","Default description","no","mono","no","18","black","Ok","768","legacy","D:/Dropbox/Studie/Master/Period II/Cognitive Modeling/Assignment Declarative Memory/subject-2202778.csv","xpyriment","Interactive Ising","3.0.4","0","z","space","NA","z","242","104145","NA","242","legacy","experiment","2202778","even","legacy","27704","522704","NA","NA","NA","555087","418558","NA","554019","554837","1149","555087","552505","552491","554837","1149","CogMod 2015 Experiment","9","2220","9","yes","1024"
"2","800","150","8","100","100","249","249","white","no","xpyriment","legacy","legacy","0","uniform","1","1","m","0","0","0","0","0","129","0","NA","129","129","0","129","129","129","129","0","11/29/15 21:12:46","Default description","no","mono","no","18","black","Ok","768","legacy","D:/Dropbox/Studie/Master/Period II/Cognitive Modeling/Assignment Declarative Memory/subject-2202778.csv","xpyriment","Interactive Ising","3.0.4","0","m","space","NA","m","271","104145","NA","271","legacy","experiment","2202778","even","legacy","27704","522704","NA","NA","NA","558156","418558","NA","557055","557872","1149","558156","555538","555519","557872","1149","CogMod 2015 Experiment","10","2491","10","yes","1024"
"2","1600","150","32","100","100","248","248","white","no","xpyriment","legacy","legacy","0","uniform","1","1","m","0","0","0","0","0","130","0","NA","130","130","0","130","130","130","130","0","11/29/15 21:12:46","Default description","no","mono","no","18","black","Ok","768","legacy","D:/Dropbox/Studie/Master/Period II/Cognitive Modeling/Assignment Declarative Memory/subject-2202778.csv","xpyriment","Interactive Ising","3.0.4","0","m","space","NA","m","243","104145","NA","243","legacy","experiment","2202778","even","legacy","27704","522704","NA","NA","NA","561942","418558","NA","560074","561692","1149","561942","558557","558546","561692","1149","CogMod 2015 Experiment","11","2734","11","yes","1024"
"2","1200","-150","16","100","100","248","248","white","no","xpyriment","legacy","legacy","0","uniform","1","1","z","0","0","0","0","0","131","0","NA","131","131","0","131","131","131","131","0","11/29/15 21:12:46","Default description","no","mono","no","18","black","Ok","768","legacy","D:/Dropbox/Studie/Master/Period II/Cognitive Modeling/Assignment Declarative Memory/subject-2202778.csv","xpyriment","Interactive Ising","3.0.4","0","z","space","NA","z","247","104145","NA","247","legacy","experiment","2202778","even","legacy","27704","522704","NA","NA","NA","565345","418558","NA","563861","565080","1149","565345","562343","562334","565079","1149","CogMod 2015 Experiment","12","2981","12","yes","1024"
"2","1200","150","16","100","100","248","248","white","no","xpyriment","legacy","legacy","0","uniform","1","1","m","0","0","0","0","0","132","0","NA","132","132","0","132","132","132","132","0","11/29/15 21:12:46","Default description","no","mono","no","18","black","Ok","768","legacy","D:/Dropbox/Studie/Master/Period II/Cognitive Modeling/Assignment Declarative Memory/subject-2202778.csv","xpyriment","Interactive Ising","3.0.4","0","m","space","NA","m","245","104145","NA","245","legacy","experiment","2202778","even","legacy","27704","522704","NA","NA","NA","568748","418558","NA","567280","568498","1149","568748","565763","565741","568498","1149","CogMod 2015 Experiment","13","3226","13","yes","1024"
"2","1600","-150","32","100","100","247","247","white","no","xpyriment","legacy","legacy","0","uniform","1","1","z","0","0","0","0","0","133","0","NA","133","133","0","133","133","133","133","0","11/29/15 21:12:46","Default description","no","mono","no","18","black","Ok","768","legacy","D:/Dropbox/Studie/Master/Period II/Cognitive Modeling/Assignment Declarative Memory/subject-2202778.csv","xpyriment","Interactive Ising","3.0.4","0","z","space","NA","z","242","104145","NA","242","legacy","experiment","2202778","even","legacy","27704","522704","NA","NA","NA","572551","418558","NA","570683","572301","1149","572551","569165","569144","572301","1149","CogMod 2015 Experiment","14","3468","14","yes","1024"
"2","1600","-150","32","100","100","248","248","white","no","xpyriment","legacy","legacy","0","uniform","1","1","z","0","0","0","0","0","134","0","NA","134","134","0","134","134","134","134","0","11/29/15 21:12:46","Default description","no","mono","no","18","black","Ok","768","legacy","D:/Dropbox/Studie/Master/Period II/Cognitive Modeling/Assignment Declarative Memory/subject-2202778.csv","xpyriment","Interactive Ising","3.0.4","0","z","space","NA","z","262","104145","NA","262","legacy","experiment","2202778","even","legacy","27704","522704","NA","NA","NA","576371","418558","NA","574486","576105","1149","576371","572969","572950","576104","1149","CogMod 2015 Experiment","15","3730","15","yes","1024"
"2","1600","-150","32","100","100","248","248","white","no","xpyriment","legacy","legacy","0","uniform","1","1","z","0","0","0","0","0","135","0","NA","135","135","0","135","135","135","135","0","11/29/15 21:12:46","Default description","no","mono","no","18","black","Ok","768","legacy","D:/Dropbox/Studie/Master/Period II/Cognitive Modeling/Assignment Declarative Memory/subject-2202778.csv","xpyriment","Interactive Ising","3.0.4","0","z","space","NA","z","252","104145","NA","252","legacy","experiment","2202778","even","legacy","27704","522704","NA","NA","NA","580174","418558","NA","578289","579907","1149","580174","576771","576753","579907","1149","CogMod 2015 Experiment","16","3982","16","yes","1024"
"2","1200","-150","16","100","100","247","247","white","no","xpyriment","legacy","legacy","0","uniform","1","1","z","0","0","0","0","0","136","0","NA","136","136","0","136","136","136","136","0","11/29/15 21:12:46","Default description","no","mono","no","18","black","Ok","768","legacy","D:/Dropbox/Studie/Master/Period II/Cognitive Modeling/Assignment Declarative Memory/subject-2202778.csv","xpyriment","Interactive Ising","3.0.4","0","z","space","NA","z","233","104145","NA","233","legacy","experiment","2202778","even","legacy","27704","522704","NA","NA","NA","583560","418558","NA","582092","583310","1149","583560","580574","580567","583310","1149","CogMod 2015 Experiment","17","4215","17","yes","1024"
"2","800","150","8","100","100","250","250","white","no","xpyriment","legacy","legacy","0","uniform","1","1","m","0","0","0","0","0","137","0","NA","137","137","0","137","137","137","137","0","11/29/15 21:12:46","Default description","no","mono","no","18","black","Ok","768","legacy","D:/Dropbox/Studie/Master/Period II/Cognitive Modeling/Assignment Declarative Memory/subject-2202778.csv","xpyriment","Interactive Ising","3.0.4","0","m","space","NA","m","294","104145","NA","294","legacy","experiment","2202778","even","legacy","27704","522704","NA","NA","NA","586629","418558","NA","585512","586329","1149","586629","583994","583977","586329","1149","CogMod 2015 Experiment","18","4509","18","yes","1024"
"2","1200","-150","16","100","100","250","250","white","no","xpyriment","legacy","legacy","0","uniform","1","1","z","0","0","0","0","0","138","0","NA","138","138","0","138","138","138","138","0","11/29/15 21:12:46","Default description","no","mono","no","18","black","Ok","768","legacy","D:/Dropbox/Studie/Master/Period II/Cognitive Modeling/Assignment Declarative Memory/subject-2202778.csv","xpyriment","Interactive Ising","3.0.4","0","z","space","NA","z","242","104145","NA","242","legacy","experiment","2202778","even","legacy","27704","522704","NA","NA","NA","590015","418558","NA","588548","589765","1149","590015","587031","587016","589765","1149","CogMod 2015 Experiment","19","4751","19","yes","1024"
