"Block","Foreperiod","Location","NumRep","acc","accuracy","average_response_time","avg_rt","background","bidi","canvas_backend","clock_backend","color_backend","compensation","coordinates","correct","correct_GetResponse","correct_response","count_Block_1","count_Block_2","count_Block_3","count_Block_4","count_Block_5","count_ClearScreen","count_Feedback","count_Feedback_Final","count_Fixation","count_GetResponse","count_Instructions1","count_LogData","count_PreTrialWait","count_SingleTrial","count_Stimulus","count_experiment","datetime","description","font_bold","font_family","font_italic","font_size","foreground","form_response","height","keyboard_backend","logfile","mouse_backend","opensesame_codename","opensesame_version","repeat_cycle","response","response_Feedback","response_Feedback_Final","response_GetResponse","response_time","response_time_Feedback","response_time_Feedback_Final","response_time_GetResponse","sampler_backend","start","subject_nr","subject_parity","synth_backend","time_Block_1","time_Block_2","time_Block_3","time_Block_4","time_Block_5","time_ClearScreen","time_Feedback","time_Feedback_Final","time_Fixation","time_GetResponse","time_Instructions1","time_LogData","time_PreTrialWait","time_SingleTrial","time_Stimulus","time_experiment","title","total_correct","total_response_time","total_responses","uniform_coordinates","width"
"1","400","150","15","100","100","603","603","white","no","xpyriment","legacy","legacy","0","uniform","1","1","m","0","0","0","0","0","0","NA","NA","0","0","0","0","0","0","0","0","11/30/15 06:26:47","Default description","no","mono","no","18","black","Ok","768","legacy","C:/Users/Schaftenaar/Downloads/subject-1691066.csv","xpyriment","Interactive Ising","3.0.4","0","m","NA","NA","m","603","NA","NA","603","legacy","experiment","1691066","even","legacy","49380","NA","NA","NA","NA","52282","NA","NA","51254","51666","3231","52282","49742","49729","51666","3231","CogMod 2015 Experiment","1","603","1","yes","1024"
"1","1200","150","15","100","100","479","479","white","no","xpyriment","legacy","legacy","0","uniform","1","1","m","0","0","0","0","0","1","NA","NA","1","1","0","1","1","1","1","0","11/30/15 06:26:47","Default description","no","mono","no","18","black","Ok","768","legacy","C:/Users/Schaftenaar/Downloads/subject-1691066.csv","xpyriment","Interactive Ising","3.0.4","0","m","NA","NA","m","355","NA","NA","355","legacy","experiment","1691066","even","legacy","49380","NA","NA","NA","NA","55764","NA","NA","54182","55394","3231","55764","52669","52656","55394","3231","CogMod 2015 Experiment","2","958","2","yes","1024"
"1","400","150","15","100","100","437","437","white","no","xpyriment","legacy","legacy","0","uniform","1","1","m","0","0","0","0","0","2","NA","NA","2","2","0","2","2","2","2","0","11/30/15 06:26:47","Default description","no","mono","no","18","black","Ok","768","legacy","C:/Users/Schaftenaar/Downloads/subject-1691066.csv","xpyriment","Interactive Ising","3.0.4","0","m","NA","NA","m","354","NA","NA","354","legacy","experiment","1691066","even","legacy","49380","NA","NA","NA","NA","58370","NA","NA","57590","58003","3231","58370","56076","56062","58003","3231","CogMod 2015 Experiment","3","1312","3","yes","1024"
"1","400","150","15","100","100","412","412","white","no","xpyriment","legacy","legacy","0","uniform","1","1","m","0","0","0","0","0","3","NA","NA","3","3","0","3","3","3","3","0","11/30/15 06:26:47","Default description","no","mono","no","18","black","Ok","768","legacy","C:/Users/Schaftenaar/Downloads/subject-1691066.csv","xpyriment","Interactive Ising","3.0.4","0","m","NA","NA","m","336","NA","NA","336","legacy","experiment","1691066","even","legacy","49380","NA","NA","NA","NA","60962","NA","NA","60201","60613","3231","60962","58689","58677","60613","3231","CogMod 2015 Experiment","4","1648","4","yes","1024"
"1","800","150","15","100","100","392","392","white","no","xpyriment","legacy","legacy","0","uniform","1","1","m","0","0","0","0","0","4","NA","NA","4","4","0","4","4","4","4","0","11/30/15 06:26:47","Default description","no","mono","no","18","black","Ok","768","legacy","C:/Users/Schaftenaar/Downloads/subject-1691066.csv","xpyriment","Interactive Ising","3.0.4","0","m","NA","NA","m","315","NA","NA","315","legacy","experiment","1691066","even","legacy","49380","NA","NA","NA","NA","63946","NA","NA","62807","63619","3231","63946","61295","61282","63619","3231","CogMod 2015 Experiment","5","1963","5","yes","1024"
"1","1600","-150","15","100","100","381","381","white","no","xpyriment","legacy","legacy","0","uniform","1","1","z","0","0","0","0","0","5","NA","NA","5","5","0","5","5","5","5","0","11/30/15 06:26:47","Default description","no","mono","no","18","black","Ok","768","legacy","C:/Users/Schaftenaar/Downloads/subject-1691066.csv","xpyriment","Interactive Ising","3.0.4","0","z","NA","NA","z","325","NA","NA","325","legacy","experiment","1691066","even","legacy","49380","NA","NA","NA","NA","67746","NA","NA","65796","67408","3231","67746","64284","64271","67408","3231","CogMod 2015 Experiment","6","2288","6","yes","1024"
"1","800","-150","15","100","100","379","379","white","no","xpyriment","legacy","legacy","0","uniform","1","1","z","0","0","0","0","0","6","NA","NA","6","6","0","6","6","6","6","0","11/30/15 06:26:47","Default description","no","mono","no","18","black","Ok","768","legacy","C:/Users/Schaftenaar/Downloads/subject-1691066.csv","xpyriment","Interactive Ising","3.0.4","0","z","NA","NA","z","367","NA","NA","367","legacy","experiment","1691066","even","legacy","49380","NA","NA","NA","NA","70786","NA","NA","69595","70407","3231","70786","68081","68067","70407","3231","CogMod 2015 Experiment","7","2655","7","yes","1024"
"1","1200","150","15","100","100","371","371","white","no","xpyriment","legacy","legacy","0","uniform","1","1","m","0","0","0","0","0","7","NA","NA","7","7","0","7","7","7","7","0","11/30/15 06:26:47","Default description","no","mono","no","18","black","Ok","768","legacy","C:/Users/Schaftenaar/Downloads/subject-1691066.csv","xpyriment","Interactive Ising","3.0.4","0","m","NA","NA","m","314","NA","NA","314","legacy","experiment","1691066","even","legacy","49380","NA","NA","NA","NA","74171","NA","NA","72631","73843","3231","74171","71119","71107","73843","3231","CogMod 2015 Experiment","8","2969","8","yes","1024"
"1","1600","150","15","100","100","366","366","white","no","xpyriment","legacy","legacy","0","uniform","1","1","m","0","0","0","0","0","8","NA","NA","8","8","0","8","8","8","8","0","11/30/15 06:26:47","Default description","no","mono","no","18","black","Ok","768","legacy","C:/Users/Schaftenaar/Downloads/subject-1691066.csv","xpyriment","Interactive Ising","3.0.4","0","m","NA","NA","m","327","NA","NA","327","legacy","experiment","1691066","even","legacy","49380","NA","NA","NA","NA","77986","NA","NA","76034","77647","3231","77986","74522","74510","77647","3231","CogMod 2015 Experiment","9","3296","9","yes","1024"
"1","400","-150","15","100","100","363","363","white","no","xpyriment","legacy","legacy","0","uniform","1","1","z","0","0","0","0","0","9","NA","NA","9","9","0","9","9","9","9","0","11/30/15 06:26:47","Default description","no","mono","no","18","black","Ok","768","legacy","C:/Users/Schaftenaar/Downloads/subject-1691066.csv","xpyriment","Interactive Ising","3.0.4","0","z","NA","NA","z","335","NA","NA","335","legacy","experiment","1691066","even","legacy","49380","NA","NA","NA","NA","80580","NA","NA","79819","80231","3231","80580","78303","78289","80231","3231","CogMod 2015 Experiment","10","3631","10","yes","1024"
"1","1200","150","15","100","100","358","358","white","no","xpyriment","legacy","legacy","0","uniform","1","1","m","0","0","0","0","0","10","NA","NA","10","10","0","10","10","10","10","0","11/30/15 06:26:47","Default description","no","mono","no","18","black","Ok","768","legacy","C:/Users/Schaftenaar/Downloads/subject-1691066.csv","xpyriment","Interactive Ising","3.0.4","0","m","NA","NA","m","312","NA","NA","312","legacy","experiment","1691066","even","legacy","49380","NA","NA","NA","NA","83946","NA","NA","82408","83621","3231","83946","80896","80883","83621","3231","CogMod 2015 Experiment","11","3943","11","yes","1024"
"1","800","-150","15","100","100","357","357","white","no","xpyriment","legacy","legacy","0","uniform","1","1","z","0","0","0","0","0","11","NA","NA","11","11","0","11","11","11","11","0","11/30/15 06:26:47","Default description","no","mono","no","18","black","Ok","768","legacy","C:/Users/Schaftenaar/Downloads/subject-1691066.csv","xpyriment","Interactive Ising","3.0.4","0","z","NA","NA","z","342","NA","NA","342","legacy","experiment","1691066","even","legacy","49380","NA","NA","NA","NA","86970","NA","NA","85804","86616","3231","86970","84292","84277","86616","3231","CogMod 2015 Experiment","12","4285","12","yes","1024"
"1","400","-150","15","100","100","359","359","white","no","xpyriment","legacy","legacy","0","uniform","1","1","z","0","0","0","0","0","12","NA","NA","12","12","0","12","12","12","12","0","11/30/15 06:26:47","Default description","no","mono","no","18","black","Ok","768","legacy","C:/Users/Schaftenaar/Downloads/subject-1691066.csv","xpyriment","Interactive Ising","3.0.4","0","z","NA","NA","z","389","NA","NA","389","legacy","experiment","1691066","even","legacy","49380","NA","NA","NA","NA","89634","NA","NA","88821","89233","3231","89635","87309","87293","89233","3231","CogMod 2015 Experiment","13","4674","13","yes","1024"
"1","400","-150","15","100","100","360","360","white","no","xpyriment","legacy","legacy","0","uniform","1","1","z","0","0","0","0","0","13","NA","NA","13","13","0","13","13","13","13","0","11/30/15 06:26:47","Default description","no","mono","no","18","black","Ok","768","legacy","C:/Users/Schaftenaar/Downloads/subject-1691066.csv","xpyriment","Interactive Ising","3.0.4","0","z","NA","NA","z","368","NA","NA","368","legacy","experiment","1691066","even","legacy","49380","NA","NA","NA","NA","92290","NA","NA","91497","91909","3231","92290","89985","89971","91909","3231","CogMod 2015 Experiment","14","5042","14","yes","1024"
"1","1600","-150","15","100","100","360","360","white","no","xpyriment","legacy","legacy","0","uniform","1","1","z","0","0","0","0","0","14","NA","NA","14","14","0","14","14","14","14","0","11/30/15 06:26:47","Default description","no","mono","no","18","black","Ok","768","legacy","C:/Users/Schaftenaar/Downloads/subject-1691066.csv","xpyriment","Interactive Ising","3.0.4","0","z","NA","NA","z","360","NA","NA","360","legacy","experiment","1691066","even","legacy","49380","NA","NA","NA","NA","96115","NA","NA","94127","95742","3231","96115","92615","92602","95742","3231","CogMod 2015 Experiment","15","5402","15","yes","1024"
"1","400","-150","15","100","100","365","365","white","no","xpyriment","legacy","legacy","0","uniform","1","1","z","0","0","0","0","0","15","NA","NA","15","15","0","15","15","15","15","0","11/30/15 06:26:47","Default description","no","mono","no","18","black","Ok","768","legacy","C:/Users/Schaftenaar/Downloads/subject-1691066.csv","xpyriment","Interactive Ising","3.0.4","0","z","NA","NA","z","439","NA","NA","439","legacy","experiment","1691066","even","legacy","49380","NA","NA","NA","NA","98820","NA","NA","97955","98367","3231","98820","96443","96431","98367","3231","CogMod 2015 Experiment","16","5841","16","yes","1024"
"1","1200","-150","15","100","100","364","364","white","no","xpyriment","legacy","legacy","0","uniform","1","1","z","0","0","0","0","0","16","NA","NA","16","16","0","16","16","16","16","0","11/30/15 06:26:47","Default description","no","mono","no","18","black","Ok","768","legacy","C:/Users/Schaftenaar/Downloads/subject-1691066.csv","xpyriment","Interactive Ising","3.0.4","0","z","NA","NA","z","352","NA","NA","352","legacy","experiment","1691066","even","legacy","49380","NA","NA","NA","NA","102242","NA","NA","100665","101877","3231","102242","99150","99137","101877","3231","CogMod 2015 Experiment","17","6193","17","yes","1024"
"1","400","-150","15","100","100","365","365","white","no","xpyriment","legacy","legacy","0","uniform","1","1","z","0","0","0","0","0","17","NA","NA","17","17","0","17","17","17","17","0","11/30/15 06:26:47","Default description","no","mono","no","18","black","Ok","768","legacy","C:/Users/Schaftenaar/Downloads/subject-1691066.csv","xpyriment","Interactive Ising","3.0.4","0","z","NA","NA","z","387","NA","NA","387","legacy","experiment","1691066","even","legacy","49380","NA","NA","NA","NA","104882","NA","NA","104071","104483","3231","104882","102559","102546","104483","3231","CogMod 2015 Experiment","18","6580","18","yes","1024"
"1","1200","-150","15","100","100","362","362","white","no","xpyriment","legacy","legacy","0","uniform","1","1","z","0","0","0","0","0","18","NA","NA","18","18","0","18","18","18","18","0","11/30/15 06:26:47","Default description","no","mono","no","18","black","Ok","768","legacy","C:/Users/Schaftenaar/Downloads/subject-1691066.csv","xpyriment","Interactive Ising","3.0.4","0","z","NA","NA","z","305","NA","NA","305","legacy","experiment","1691066","even","legacy","49380","NA","NA","NA","NA","108252","NA","NA","106721","107933","3231","108252","105205","105192","107933","3231","CogMod 2015 Experiment","19","6885","19","yes","1024"
"1","800","-150","15","100","100","362","362","white","no","xpyriment","legacy","legacy","0","uniform","1","1","z","0","0","0","0","0","19","NA","NA","19","19","0","19","19","19","19","0","11/30/15 06:26:47","Default description","no","mono","no","18","black","Ok","768","legacy","C:/Users/Schaftenaar/Downloads/subject-1691066.csv","xpyriment","Interactive Ising","3.0.4","0","z","NA","NA","z","357","NA","NA","357","legacy","experiment","1691066","even","legacy","49380","NA","NA","NA","NA","111298","NA","NA","110116","110928","3231","111298","108601","108588","110928","3231","CogMod 2015 Experiment","20","7242","20","yes","1024"
"1","400","150","15","100","100","363","363","white","no","xpyriment","legacy","legacy","0","uniform","1","1","m","0","0","0","0","0","20","NA","NA","20","20","0","20","20","20","20","0","11/30/15 06:26:47","Default description","no","mono","no","18","black","Ok","768","legacy","C:/Users/Schaftenaar/Downloads/subject-1691066.csv","xpyriment","Interactive Ising","3.0.4","0","m","NA","NA","m","396","NA","NA","396","legacy","experiment","1691066","even","legacy","49380","NA","NA","NA","NA","114011","NA","NA","113190","113602","3231","114011","111678","111661","113602","3231","CogMod 2015 Experiment","21","7638","21","yes","1024"
"1","800","150","15","100","100","364","364","white","no","xpyriment","legacy","legacy","0","uniform","1","1","m","0","0","0","0","0","21","NA","NA","21","21","0","21","21","21","21","0","11/30/15 06:26:47","Default description","no","mono","no","18","black","Ok","768","legacy","C:/Users/Schaftenaar/Downloads/subject-1691066.csv","xpyriment","Interactive Ising","3.0.4","0","m","NA","NA","m","376","NA","NA","376","legacy","experiment","1691066","even","legacy","49380","NA","NA","NA","NA","117042","NA","NA","115841","116653","3231","117042","114328","114316","116653","3231","CogMod 2015 Experiment","22","8014","22","yes","1024"
"1","800","150","15","100","100","363","363","white","no","xpyriment","legacy","legacy","0","uniform","1","1","m","0","0","0","0","0","22","NA","NA","22","22","0","22","22","22","22","0","11/30/15 06:26:47","Default description","no","mono","no","18","black","Ok","768","legacy","C:/Users/Schaftenaar/Downloads/subject-1691066.csv","xpyriment","Interactive Ising","3.0.4","0","m","NA","NA","m","342","NA","NA","342","legacy","experiment","1691066","even","legacy","49380","NA","NA","NA","NA","120050","NA","NA","118881","119696","3231","120051","117368","117356","119696","3231","CogMod 2015 Experiment","23","8356","23","yes","1024"
"1","800","150","15","100","100","361","361","white","no","xpyriment","legacy","legacy","0","uniform","1","1","m","0","0","0","0","0","23","NA","NA","23","23","0","23","23","23","23","0","11/30/15 06:26:47","Default description","no","mono","no","18","black","Ok","768","legacy","C:/Users/Schaftenaar/Downloads/subject-1691066.csv","xpyriment","Interactive Ising","3.0.4","0","m","NA","NA","m","330","NA","NA","330","legacy","experiment","1691066","even","legacy","49380","NA","NA","NA","NA","123050","NA","NA","121895","122707","3231","123050","120383","120370","122707","3231","CogMod 2015 Experiment","24","8686","24","yes","1024"
"1","800","150","15","100","100","361","361","white","no","xpyriment","legacy","legacy","0","uniform","1","1","m","0","0","0","0","0","24","NA","NA","24","24","0","24","24","24","24","0","11/30/15 06:26:47","Default description","no","mono","no","18","black","Ok","768","legacy","C:/Users/Schaftenaar/Downloads/subject-1691066.csv","xpyriment","Interactive Ising","3.0.4","0","m","NA","NA","m","339","NA","NA","339","legacy","experiment","1691066","even","legacy","49380","NA","NA","NA","NA","126077","NA","NA","124911","125723","3231","126077","123399","123386","125723","3231","CogMod 2015 Experiment","25","9025","25","yes","1024"
"1","1200","150","15","100","100","359","359","white","no","xpyriment","legacy","legacy","0","uniform","1","1","m","0","0","0","0","0","25","NA","NA","25","25","0","25","25","25","25","0","11/30/15 06:26:47","Default description","no","mono","no","18","black","Ok","768","legacy","C:/Users/Schaftenaar/Downloads/subject-1691066.csv","xpyriment","Interactive Ising","3.0.4","0","m","NA","NA","m","309","NA","NA","309","legacy","experiment","1691066","even","legacy","49380","NA","NA","NA","NA","129442","NA","NA","127908","129120","3231","129442","126388","126375","129120","3231","CogMod 2015 Experiment","26","9334","26","yes","1024"
"1","1600","-150","15","100","100","357","357","white","no","xpyriment","legacy","legacy","0","uniform","1","1","z","0","0","0","0","0","26","NA","NA","26","26","0","26","26","26","26","0","11/30/15 06:26:47","Default description","no","mono","no","18","black","Ok","768","legacy","C:/Users/Schaftenaar/Downloads/subject-1691066.csv","xpyriment","Interactive Ising","3.0.4","0","z","NA","NA","z","325","NA","NA","325","legacy","experiment","1691066","even","legacy","49380","NA","NA","NA","NA","133242","NA","NA","131292","132904","3231","133242","129780","129764","132904","3231","CogMod 2015 Experiment","27","9659","27","yes","1024"
"1","1200","-150","15","100","100","357","357","white","no","xpyriment","legacy","legacy","0","uniform","1","1","z","0","0","0","0","0","27","NA","NA","27","27","0","27","27","27","27","0","11/30/15 06:26:47","Default description","no","mono","no","18","black","Ok","768","legacy","C:/Users/Schaftenaar/Downloads/subject-1691066.csv","xpyriment","Interactive Ising","3.0.4","0","z","NA","NA","z","340","NA","NA","340","legacy","experiment","1691066","even","legacy","49380","NA","NA","NA","NA","136698","NA","NA","135130","136345","3231","136698","133615","133601","136345","3231","CogMod 2015 Experiment","28","9999","28","yes","1024"
"1","1200","-150","15","100","100","355","355","white","no","xpyriment","legacy","legacy","0","uniform","1","1","z","0","0","0","0","0","28","NA","NA","28","28","0","28","28","28","28","0","11/30/15 06:26:47","Default description","no","mono","no","18","black","Ok","768","legacy","C:/Users/Schaftenaar/Downloads/subject-1691066.csv","xpyriment","Interactive Ising","3.0.4","0","z","NA","NA","z","310","NA","NA","310","legacy","experiment","1691066","even","legacy","49380","NA","NA","NA","NA","140084","NA","NA","138548","139760","3231","140084","137035","137022","139760","3231","CogMod 2015 Experiment","29","10309","29","yes","1024"
"1","1200","150","15","100","100","355","355","white","no","xpyriment","legacy","legacy","0","uniform","1","1","m","0","0","0","0","0","29","NA","NA","29","29","0","29","29","29","29","0","11/30/15 06:26:47","Default description","no","mono","no","18","black","Ok","768","legacy","C:/Users/Schaftenaar/Downloads/subject-1691066.csv","xpyriment","Interactive Ising","3.0.4","0","m","NA","NA","m","346","NA","NA","346","legacy","experiment","1691066","even","legacy","49380","NA","NA","NA","NA","143490","NA","NA","141919","143132","3231","143490","140407","140394","143132","3231","CogMod 2015 Experiment","30","10655","30","yes","1024"
"1","1600","150","15","100","100","355","355","white","no","xpyriment","legacy","legacy","0","uniform","1","1","m","0","0","0","0","0","30","NA","NA","30","30","0","30","30","30","30","0","11/30/15 06:26:47","Default description","no","mono","no","18","black","Ok","768","legacy","C:/Users/Schaftenaar/Downloads/subject-1691066.csv","xpyriment","Interactive Ising","3.0.4","0","m","NA","NA","m","352","NA","NA","352","legacy","experiment","1691066","even","legacy","49380","NA","NA","NA","NA","147322","NA","NA","145345","146957","3231","147322","143833","143819","146957","3231","CogMod 2015 Experiment","31","11007","31","yes","1024"
"1","1600","-150","15","100","100","354","354","white","no","xpyriment","legacy","legacy","0","uniform","1","1","z","0","0","0","0","0","31","NA","NA","31","31","0","31","31","31","31","0","11/30/15 06:26:47","Default description","no","mono","no","18","black","Ok","768","legacy","C:/Users/Schaftenaar/Downloads/subject-1691066.csv","xpyriment","Interactive Ising","3.0.4","0","z","NA","NA","z","323","NA","NA","323","legacy","experiment","1691066","even","legacy","49380","NA","NA","NA","NA","151149","NA","NA","149199","150811","3231","151149","147684","147671","150811","3231","CogMod 2015 Experiment","32","11330","32","yes","1024"
"1","400","150","15","100","100","354","354","white","no","xpyriment","legacy","legacy","0","uniform","1","1","m","0","0","0","0","0","32","NA","NA","32","32","0","32","32","32","32","0","11/30/15 06:26:47","Default description","no","mono","no","18","black","Ok","768","legacy","C:/Users/Schaftenaar/Downloads/subject-1691066.csv","xpyriment","Interactive Ising","3.0.4","0","m","NA","NA","m","374","NA","NA","374","legacy","experiment","1691066","even","legacy","49380","NA","NA","NA","NA","153813","NA","NA","153011","153423","3231","153813","151499","151486","153423","3231","CogMod 2015 Experiment","33","11704","33","yes","1024"
"1","1200","-150","15","100","100","354","354","white","no","xpyriment","legacy","legacy","0","uniform","1","1","z","0","0","0","0","0","33","NA","NA","33","33","0","33","33","33","33","0","11/30/15 06:26:47","Default description","no","mono","no","18","black","Ok","768","legacy","C:/Users/Schaftenaar/Downloads/subject-1691066.csv","xpyriment","Interactive Ising","3.0.4","0","z","NA","NA","z","335","NA","NA","335","legacy","experiment","1691066","even","legacy","49380","NA","NA","NA","NA","157242","NA","NA","155681","156894","3231","157242","154166","154152","156894","3231","CogMod 2015 Experiment","34","12039","34","yes","1024"
"1","1200","150","15","100","100","353","353","white","no","xpyriment","legacy","legacy","0","uniform","1","1","m","0","0","0","0","0","34","NA","NA","34","34","0","34","34","34","34","0","11/30/15 06:26:47","Default description","no","mono","no","18","black","Ok","768","legacy","C:/Users/Schaftenaar/Downloads/subject-1691066.csv","xpyriment","Interactive Ising","3.0.4","0","m","NA","NA","m","323","NA","NA","323","legacy","experiment","1691066","even","legacy","49380","NA","NA","NA","NA","161283","NA","NA","159735","160947","3231","161283","158223","158208","160947","3231","CogMod 2015 Experiment","35","12362","35","yes","1024"
"1","800","150","15","100","100","353","353","white","no","xpyriment","legacy","legacy","0","uniform","1","1","m","0","0","0","0","0","35","NA","NA","35","35","0","35","35","35","35","0","11/30/15 06:26:47","Default description","no","mono","no","18","black","Ok","768","legacy","C:/Users/Schaftenaar/Downloads/subject-1691066.csv","xpyriment","Interactive Ising","3.0.4","0","m","NA","NA","m","357","NA","NA","357","legacy","experiment","1691066","even","legacy","49380","NA","NA","NA","NA","164509","NA","NA","163325","164137","3231","164509","161813","161800","164137","3231","CogMod 2015 Experiment","36","12719","36","yes","1024"
"1","1200","150","15","100","100","353","353","white","no","xpyriment","legacy","legacy","0","uniform","1","1","m","0","0","0","0","0","36","NA","NA","36","36","0","36","36","36","36","0","11/30/15 06:26:47","Default description","no","mono","no","18","black","Ok","768","legacy","C:/Users/Schaftenaar/Downloads/subject-1691066.csv","xpyriment","Interactive Ising","3.0.4","0","m","NA","NA","m","353","NA","NA","353","legacy","experiment","1691066","even","legacy","49380","NA","NA","NA","NA","168690","NA","NA","167112","168324","3231","168690","165600","165586","168324","3231","CogMod 2015 Experiment","37","13072","37","yes","1024"
"1","1600","150","15","100","100","354","354","white","no","xpyriment","legacy","legacy","0","uniform","1","1","m","0","0","0","0","0","37","NA","NA","37","37","0","37","37","37","37","0","11/30/15 06:26:47","Default description","no","mono","no","18","black","Ok","768","legacy","C:/Users/Schaftenaar/Downloads/subject-1691066.csv","xpyriment","Interactive Ising","3.0.4","0","m","NA","NA","m","383","NA","NA","383","legacy","experiment","1691066","even","legacy","49380","NA","NA","NA","NA","172538","NA","NA","170530","172142","3231","172538","169018","169004","172142","3231","CogMod 2015 Experiment","38","13455","38","yes","1024"
"1","800","-150","15","100","100","353","353","white","no","xpyriment","legacy","legacy","0","uniform","1","1","z","0","0","0","0","0","38","NA","NA","38","38","0","38","38","38","38","0","11/30/15 06:26:47","Default description","no","mono","no","18","black","Ok","768","legacy","C:/Users/Schaftenaar/Downloads/subject-1691066.csv","xpyriment","Interactive Ising","3.0.4","0","z","NA","NA","z","326","NA","NA","326","legacy","experiment","1691066","even","legacy","49380","NA","NA","NA","NA","175546","NA","NA","174396","175208","3231","175546","172884","172871","175208","3231","CogMod 2015 Experiment","39","13781","39","yes","1024"
"1","1200","-150","15","100","100","353","353","white","no","xpyriment","legacy","legacy","0","uniform","1","1","z","0","0","0","0","0","39","NA","NA","39","39","0","39","39","39","39","0","11/30/15 06:26:47","Default description","no","mono","no","18","black","Ok","768","legacy","C:/Users/Schaftenaar/Downloads/subject-1691066.csv","xpyriment","Interactive Ising","3.0.4","0","z","NA","NA","z","361","NA","NA","361","legacy","experiment","1691066","even","legacy","49380","NA","NA","NA","NA","178987","NA","NA","177401","178613","3231","178987","175889","175876","178613","3231","CogMod 2015 Experiment","40","14142","40","yes","1024"
"1","1200","150","15","100","100","352","352","white","no","xpyriment","legacy","legacy","0","uniform","1","1","m","0","0","0","0","0","40","NA","NA","40","40","0","40","40","40","40","0","11/30/15 06:26:47","Default description","no","mono","no","18","black","Ok","768","legacy","C:/Users/Schaftenaar/Downloads/subject-1691066.csv","xpyriment","Interactive Ising","3.0.4","0","m","NA","NA","m","319","NA","NA","319","legacy","experiment","1691066","even","legacy","49380","NA","NA","NA","NA","182397","NA","NA","180850","182062","3231","182397","179335","179322","182062","3231","CogMod 2015 Experiment","41","14461","41","yes","1024"
"1","1200","-150","15","100","100","352","352","white","no","xpyriment","legacy","legacy","0","uniform","1","1","z","0","0","0","0","0","41","NA","NA","41","41","0","41","41","41","41","0","11/30/15 06:26:47","Default description","no","mono","no","18","black","Ok","768","legacy","C:/Users/Schaftenaar/Downloads/subject-1691066.csv","xpyriment","Interactive Ising","3.0.4","0","z","NA","NA","z","326","NA","NA","326","legacy","experiment","1691066","even","legacy","49380","NA","NA","NA","NA","185802","NA","NA","184251","185464","3231","185802","182739","182725","185464","3231","CogMod 2015 Experiment","42","14787","42","yes","1024"
"1","800","150","15","100","100","352","352","white","no","xpyriment","legacy","legacy","0","uniform","1","1","m","0","0","0","0","0","42","NA","NA","42","42","0","42","42","42","42","0","11/30/15 06:26:47","Default description","no","mono","no","18","black","Ok","768","legacy","C:/Users/Schaftenaar/Downloads/subject-1691066.csv","xpyriment","Interactive Ising","3.0.4","0","m","NA","NA","m","364","NA","NA","364","legacy","experiment","1691066","even","legacy","49380","NA","NA","NA","NA","188836","NA","NA","187646","188458","3231","188836","186134","186121","188458","3231","CogMod 2015 Experiment","43","15151","43","yes","1024"
"1","1200","150","15","100","100","351","351","white","no","xpyriment","legacy","legacy","0","uniform","1","1","m","0","0","0","0","0","43","NA","NA","43","43","0","43","43","43","43","0","11/30/15 06:26:47","Default description","no","mono","no","18","black","Ok","768","legacy","C:/Users/Schaftenaar/Downloads/subject-1691066.csv","xpyriment","Interactive Ising","3.0.4","0","m","NA","NA","m","331","NA","NA","331","legacy","experiment","1691066","even","legacy","49380","NA","NA","NA","NA","192243","NA","NA","190686","191898","3231","192243","189174","189160","191898","3231","CogMod 2015 Experiment","44","15482","44","yes","1024"
"1","1600","-150","15","100","100","351","351","white","no","xpyriment","legacy","legacy","0","uniform","1","1","z","0","0","0","0","0","44","NA","NA","44","44","0","44","44","44","44","0","11/30/15 06:26:47","Default description","no","mono","no","18","black","Ok","768","legacy","C:/Users/Schaftenaar/Downloads/subject-1691066.csv","xpyriment","Interactive Ising","3.0.4","0","z","NA","NA","z","355","NA","NA","355","legacy","experiment","1691066","even","legacy","49380","NA","NA","NA","NA","196068","NA","NA","194087","195699","3231","196068","192575","192560","195699","3231","CogMod 2015 Experiment","45","15837","45","yes","1024"
"1","400","-150","15","100","100","353","353","white","no","xpyriment","legacy","legacy","0","uniform","1","1","z","0","0","0","0","0","45","NA","NA","45","45","0","45","45","45","45","0","11/30/15 06:26:47","Default description","no","mono","no","18","black","Ok","768","legacy","C:/Users/Schaftenaar/Downloads/subject-1691066.csv","xpyriment","Interactive Ising","3.0.4","0","z","NA","NA","z","407","NA","NA","407","legacy","experiment","1691066","even","legacy","49380","NA","NA","NA","NA","198746","NA","NA","197914","198326","3231","198746","196399","196386","198326","3231","CogMod 2015 Experiment","46","16244","46","yes","1024"
"1","1600","150","15","100","100","352","352","white","no","xpyriment","legacy","legacy","0","uniform","1","1","m","0","0","0","0","0","46","NA","NA","46","46","0","46","46","46","46","0","11/30/15 06:26:47","Default description","no","mono","no","18","black","Ok","768","legacy","C:/Users/Schaftenaar/Downloads/subject-1691066.csv","xpyriment","Interactive Ising","3.0.4","0","m","NA","NA","m","329","NA","NA","329","legacy","experiment","1691066","even","legacy","49380","NA","NA","NA","NA","202538","NA","NA","200585","202197","3231","202538","199072","199059","202197","3231","CogMod 2015 Experiment","47","16573","47","yes","1024"
"1","800","150","15","100","100","352","352","white","no","xpyriment","legacy","legacy","0","uniform","1","1","m","0","0","0","0","0","47","NA","NA","47","47","0","47","47","47","47","0","11/30/15 06:26:47","Default description","no","mono","no","18","black","Ok","768","legacy","C:/Users/Schaftenaar/Downloads/subject-1691066.csv","xpyriment","Interactive Ising","3.0.4","0","m","NA","NA","m","356","NA","NA","356","legacy","experiment","1691066","even","legacy","49380","NA","NA","NA","NA","205602","NA","NA","204421","205233","3231","205602","202909","202896","205233","3231","CogMod 2015 Experiment","48","16929","48","yes","1024"
"1","1600","150","15","100","100","352","352","white","no","xpyriment","legacy","legacy","0","uniform","1","1","m","0","0","0","0","0","48","NA","NA","48","48","0","48","48","48","48","0","11/30/15 06:26:47","Default description","no","mono","no","18","black","Ok","768","legacy","C:/Users/Schaftenaar/Downloads/subject-1691066.csv","xpyriment","Interactive Ising","3.0.4","0","m","NA","NA","m","336","NA","NA","336","legacy","experiment","1691066","even","legacy","49380","NA","NA","NA","NA","209419","NA","NA","207457","209070","3231","209419","205945","205932","209070","3231","CogMod 2015 Experiment","49","17265","49","yes","1024"
"1","400","150","15","100","100","352","352","white","no","xpyriment","legacy","legacy","0","uniform","1","1","m","0","0","0","0","0","49","NA","NA","49","49","0","49","49","49","49","0","11/30/15 06:26:47","Default description","no","mono","no","18","black","Ok","768","legacy","C:/Users/Schaftenaar/Downloads/subject-1691066.csv","xpyriment","Interactive Ising","3.0.4","0","m","NA","NA","m","380","NA","NA","380","legacy","experiment","1691066","even","legacy","49380","NA","NA","NA","NA","212062","NA","NA","211250","211666","3231","212062","209736","209721","211666","3231","CogMod 2015 Experiment","50","17645","50","yes","1024"
"1","400","150","15","100","100","353","353","white","no","xpyriment","legacy","legacy","0","uniform","1","1","m","0","0","0","0","0","50","NA","NA","50","50","0","50","50","50","50","0","11/30/15 06:26:47","Default description","no","mono","no","18","black","Ok","768","legacy","C:/Users/Schaftenaar/Downloads/subject-1691066.csv","xpyriment","Interactive Ising","3.0.4","0","m","NA","NA","m","397","NA","NA","397","legacy","experiment","1691066","even","legacy","49380","NA","NA","NA","NA","214730","NA","NA","213906","214321","3231","214730","212391","212376","214321","3231","CogMod 2015 Experiment","51","18042","51","yes","1024"
"1","400","-150","15","100","100","354","354","white","no","xpyriment","legacy","legacy","0","uniform","1","1","z","0","0","0","0","0","51","NA","NA","51","51","0","51","51","51","51","0","11/30/15 06:26:47","Default description","no","mono","no","18","black","Ok","768","legacy","C:/Users/Schaftenaar/Downloads/subject-1691066.csv","xpyriment","Interactive Ising","3.0.4","0","z","NA","NA","z","381","NA","NA","381","legacy","experiment","1691066","even","legacy","49380","NA","NA","NA","NA","217362","NA","NA","216556","216969","3231","217363","215044","215031","216969","3231","CogMod 2015 Experiment","52","18423","52","yes","1024"
"1","1600","150","15","100","100","353","353","white","no","xpyriment","legacy","legacy","0","uniform","1","1","m","0","0","0","0","0","52","NA","NA","52","52","0","52","52","52","52","0","11/30/15 06:26:47","Default description","no","mono","no","18","black","Ok","768","legacy","C:/Users/Schaftenaar/Downloads/subject-1691066.csv","xpyriment","Interactive Ising","3.0.4","0","m","NA","NA","m","305","NA","NA","305","legacy","experiment","1691066","even","legacy","49380","NA","NA","NA","NA","221124","NA","NA","219190","220804","3231","221124","217678","217666","220804","3231","CogMod 2015 Experiment","53","18728","53","yes","1024"
"1","800","-150","15","100","100","353","353","white","no","xpyriment","legacy","legacy","0","uniform","1","1","z","0","0","0","0","0","53","NA","NA","53","53","0","53","53","53","53","0","11/30/15 06:26:47","Default description","no","mono","no","18","black","Ok","768","legacy","C:/Users/Schaftenaar/Downloads/subject-1691066.csv","xpyriment","Interactive Ising","3.0.4","0","z","NA","NA","z","344","NA","NA","344","legacy","experiment","1691066","even","legacy","49380","NA","NA","NA","NA","224130","NA","NA","222961","223773","3231","224130","221448","221432","223773","3231","CogMod 2015 Experiment","54","19072","54","yes","1024"
"1","800","150","15","100","100","352","352","white","no","xpyriment","legacy","legacy","0","uniform","1","1","m","0","0","0","0","0","54","NA","NA","54","54","0","54","54","54","54","0","11/30/15 06:26:47","Default description","no","mono","no","18","black","Ok","768","legacy","C:/Users/Schaftenaar/Downloads/subject-1691066.csv","xpyriment","Interactive Ising","3.0.4","0","m","NA","NA","m","314","NA","NA","314","legacy","experiment","1691066","even","legacy","49380","NA","NA","NA","NA","227106","NA","NA","225956","226779","3231","227106","224444","224431","226779","3231","CogMod 2015 Experiment","55","19386","55","yes","1024"
"1","400","-150","15","100","100","352","352","white","no","xpyriment","legacy","legacy","0","uniform","1","1","z","0","0","0","0","0","55","NA","NA","55","55","0","55","55","55","55","0","11/30/15 06:26:47","Default description","no","mono","no","18","black","Ok","768","legacy","C:/Users/Schaftenaar/Downloads/subject-1691066.csv","xpyriment","Interactive Ising","3.0.4","0","z","NA","NA","z","335","NA","NA","335","legacy","experiment","1691066","even","legacy","49380","NA","NA","NA","NA","229714","NA","NA","228955","229367","3231","229715","227443","227430","229367","3231","CogMod 2015 Experiment","56","19721","56","yes","1024"
"1","1600","150","15","100","100","351","351","white","no","xpyriment","legacy","legacy","0","uniform","1","1","m","0","0","0","0","0","56","NA","NA","56","56","0","56","56","56","56","0","11/30/15 06:26:47","Default description","no","mono","no","18","black","Ok","768","legacy","C:/Users/Schaftenaar/Downloads/subject-1691066.csv","xpyriment","Interactive Ising","3.0.4","0","m","NA","NA","m","322","NA","NA","322","legacy","experiment","1691066","even","legacy","49380","NA","NA","NA","NA","233562","NA","NA","231615","233227","3231","233562","230103","230090","233227","3231","CogMod 2015 Experiment","57","20043","57","yes","1024"
"1","400","-150","15","100","100","352","352","white","no","xpyriment","legacy","legacy","0","uniform","1","1","z","0","0","0","0","0","57","NA","NA","57","57","0","57","57","57","57","0","11/30/15 06:26:47","Default description","no","mono","no","18","black","Ok","768","legacy","C:/Users/Schaftenaar/Downloads/subject-1691066.csv","xpyriment","Interactive Ising","3.0.4","0","z","NA","NA","z","416","NA","NA","416","legacy","experiment","1691066","even","legacy","49380","NA","NA","NA","NA","236298","NA","NA","235458","235870","3231","236299","233946","233931","235870","3231","CogMod 2015 Experiment","58","20459","58","yes","1024"
"1","1200","-150","15","100","100","352","352","white","no","xpyriment","legacy","legacy","0","uniform","1","1","z","0","0","0","0","0","58","NA","NA","58","58","0","58","58","58","58","0","11/30/15 06:26:47","Default description","no","mono","no","18","black","Ok","768","legacy","C:/Users/Schaftenaar/Downloads/subject-1691066.csv","xpyriment","Interactive Ising","3.0.4","0","z","NA","NA","z","337","NA","NA","337","legacy","experiment","1691066","even","legacy","49380","NA","NA","NA","NA","239738","NA","NA","238177","239389","3231","239739","236661","236649","239389","3231","CogMod 2015 Experiment","59","20796","59","yes","1024"
"1","1600","-150","15","100","100","352","352","white","no","xpyriment","legacy","legacy","0","uniform","1","1","z","0","0","0","0","0","59","NA","NA","59","59","0","59","59","59","59","0","11/30/15 06:26:47","Default description","no","mono","no","18","black","Ok","768","legacy","C:/Users/Schaftenaar/Downloads/subject-1691066.csv","xpyriment","Interactive Ising","3.0.4","0","z","NA","NA","z","359","NA","NA","359","legacy","experiment","1691066","even","legacy","49380","NA","NA","NA","NA","243562","NA","NA","241578","243190","3231","243562","240066","240053","243190","3231","CogMod 2015 Experiment","60","21155","60","yes","1024"
"1","1600","-150","15","100","100","352","352","white","no","xpyriment","legacy","legacy","0","uniform","1","1","z","0","0","0","0","0","60","NA","NA","60","60","0","60","60","60","60","0","11/30/15 06:26:47","Default description","no","mono","no","18","black","Ok","768","legacy","C:/Users/Schaftenaar/Downloads/subject-1691066.csv","xpyriment","Interactive Ising","3.0.4","0","z","NA","NA","z","377","NA","NA","377","legacy","experiment","1691066","even","legacy","49380","NA","NA","NA","NA","247412","NA","NA","245407","247021","3231","247412","243895","243882","247021","3231","CogMod 2015 Experiment","61","21532","61","yes","1024"
"1","800","-150","15","100","100","352","352","white","no","xpyriment","legacy","legacy","0","uniform","1","1","z","0","0","0","0","0","61","NA","NA","61","61","0","61","61","61","61","0","11/30/15 06:26:47","Default description","no","mono","no","18","black","Ok","768","legacy","C:/Users/Schaftenaar/Downloads/subject-1691066.csv","xpyriment","Interactive Ising","3.0.4","0","z","NA","NA","z","336","NA","NA","336","legacy","experiment","1691066","even","legacy","49380","NA","NA","NA","NA","250412","NA","NA","249250","250062","3231","250412","247738","247722","250062","3231","CogMod 2015 Experiment","62","21868","62","yes","1024"
"1","1200","-150","15","100","100","352","352","white","no","xpyriment","legacy","legacy","0","uniform","1","1","z","0","0","0","0","0","62","NA","NA","62","62","0","62","62","62","62","0","11/30/15 06:26:47","Default description","no","mono","no","18","black","Ok","768","legacy","C:/Users/Schaftenaar/Downloads/subject-1691066.csv","xpyriment","Interactive Ising","3.0.4","0","z","NA","NA","z","345","NA","NA","345","legacy","experiment","1691066","even","legacy","49380","NA","NA","NA","NA","253842","NA","NA","252271","253485","3231","253842","250759","250746","253485","3231","CogMod 2015 Experiment","63","22213","63","yes","1024"
"1","1200","-150","15","100","100","352","352","white","no","xpyriment","legacy","legacy","0","uniform","1","1","z","0","0","0","0","0","63","NA","NA","63","63","0","63","63","63","63","0","11/30/15 06:26:47","Default description","no","mono","no","18","black","Ok","768","legacy","C:/Users/Schaftenaar/Downloads/subject-1691066.csv","xpyriment","Interactive Ising","3.0.4","0","z","NA","NA","z","331","NA","NA","331","legacy","experiment","1691066","even","legacy","49380","NA","NA","NA","NA","257276","NA","NA","255719","256931","3231","257276","254207","254194","256931","3231","CogMod 2015 Experiment","64","22544","64","yes","1024"
"1","1200","150","15","100","100","352","352","white","no","xpyriment","legacy","legacy","0","uniform","1","1","m","0","0","0","0","0","64","NA","NA","64","64","0","64","64","64","64","0","11/30/15 06:26:47","Default description","no","mono","no","18","black","Ok","768","legacy","C:/Users/Schaftenaar/Downloads/subject-1691066.csv","xpyriment","Interactive Ising","3.0.4","0","m","NA","NA","m","341","NA","NA","341","legacy","experiment","1691066","even","legacy","49380","NA","NA","NA","NA","260701","NA","NA","259132","260344","3231","260701","257620","257604","260344","3231","CogMod 2015 Experiment","65","22885","65","yes","1024"
"1","1600","150","15","100","100","351","351","white","no","xpyriment","legacy","legacy","0","uniform","1","1","m","0","0","0","0","0","65","NA","NA","65","65","0","65","65","65","65","0","11/30/15 06:26:47","Default description","no","mono","no","18","black","Ok","768","legacy","C:/Users/Schaftenaar/Downloads/subject-1691066.csv","xpyriment","Interactive Ising","3.0.4","0","m","NA","NA","m","335","NA","NA","335","legacy","experiment","1691066","even","legacy","49380","NA","NA","NA","NA","264500","NA","NA","262538","264150","3231","264500","261024","261011","264150","3231","CogMod 2015 Experiment","66","23220","66","yes","1024"
"1","400","150","15","100","100","352","352","white","no","xpyriment","legacy","legacy","0","uniform","1","1","m","0","0","0","0","0","66","NA","NA","66","66","0","66","66","66","66","0","11/30/15 06:26:47","Default description","no","mono","no","18","black","Ok","768","legacy","C:/Users/Schaftenaar/Downloads/subject-1691066.csv","xpyriment","Interactive Ising","3.0.4","0","m","NA","NA","m","424","NA","NA","424","legacy","experiment","1691066","even","legacy","49380","NA","NA","NA","NA","267202","NA","NA","266354","266766","3231","267202","264839","264826","266766","3231","CogMod 2015 Experiment","67","23644","67","yes","1024"
"1","1600","-150","15","100","100","352","352","white","no","xpyriment","legacy","legacy","0","uniform","1","1","z","0","0","0","0","0","67","NA","NA","67","67","0","67","67","67","67","0","11/30/15 06:26:47","Default description","no","mono","no","18","black","Ok","768","legacy","C:/Users/Schaftenaar/Downloads/subject-1691066.csv","xpyriment","Interactive Ising","3.0.4","0","z","NA","NA","z","349","NA","NA","349","legacy","experiment","1691066","even","legacy","49380","NA","NA","NA","NA","271002","NA","NA","269027","270640","3231","271002","267515","267502","270640","3231","CogMod 2015 Experiment","68","23993","68","yes","1024"
"1","400","-150","15","100","100","353","353","white","no","xpyriment","legacy","legacy","0","uniform","1","1","z","0","0","0","0","0","68","NA","NA","68","68","0","68","68","68","68","0","11/30/15 06:26:47","Default description","no","mono","no","18","black","Ok","768","legacy","C:/Users/Schaftenaar/Downloads/subject-1691066.csv","xpyriment","Interactive Ising","3.0.4","0","z","NA","NA","z","381","NA","NA","381","legacy","experiment","1691066","even","legacy","49380","NA","NA","NA","NA","273666","NA","NA","272861","273273","3231","273666","271349","271336","273273","3231","CogMod 2015 Experiment","69","24374","69","yes","1024"
"1","800","-150","15","100","100","352","352","white","no","xpyriment","legacy","legacy","0","uniform","1","1","z","0","0","0","0","0","69","NA","NA","69","69","0","69","69","69","69","0","11/30/15 06:26:47","Default description","no","mono","no","18","black","Ok","768","legacy","C:/Users/Schaftenaar/Downloads/subject-1691066.csv","xpyriment","Interactive Ising","3.0.4","0","z","NA","NA","z","300","NA","NA","300","legacy","experiment","1691066","even","legacy","49380","NA","NA","NA","NA","276643","NA","NA","275518","276330","3231","276643","274006","273991","276330","3231","CogMod 2015 Experiment","70","24674","70","yes","1024"
"1","1200","-150","15","100","100","353","353","white","no","xpyriment","legacy","legacy","0","uniform","1","1","z","0","0","0","0","0","70","NA","NA","70","70","0","70","70","70","70","0","11/30/15 06:26:47","Default description","no","mono","no","18","black","Ok","768","legacy","C:/Users/Schaftenaar/Downloads/subject-1691066.csv","xpyriment","Interactive Ising","3.0.4","0","z","NA","NA","z","396","NA","NA","396","legacy","experiment","1691066","even","legacy","49380","NA","NA","NA","NA","280139","NA","NA","278517","279729","3231","280139","277005","276991","279729","3231","CogMod 2015 Experiment","71","25070","71","yes","1024"
"1","400","150","15","100","100","353","353","white","no","xpyriment","legacy","legacy","0","uniform","1","1","m","0","0","0","0","0","71","NA","NA","71","71","0","71","71","71","71","0","11/30/15 06:26:47","Default description","no","mono","no","18","black","Ok","768","legacy","C:/Users/Schaftenaar/Downloads/subject-1691066.csv","xpyriment","Interactive Ising","3.0.4","0","m","NA","NA","m","368","NA","NA","368","legacy","experiment","1691066","even","legacy","49380","NA","NA","NA","NA","282789","NA","NA","281994","282406","3231","282789","280482","280469","282406","3231","CogMod 2015 Experiment","72","25438","72","yes","1024"
"1","1600","-150","15","100","100","353","353","white","no","xpyriment","legacy","legacy","0","uniform","1","1","z","0","0","0","0","0","72","NA","NA","72","72","0","72","72","72","72","0","11/30/15 06:26:47","Default description","no","mono","no","18","black","Ok","768","legacy","C:/Users/Schaftenaar/Downloads/subject-1691066.csv","xpyriment","Interactive Ising","3.0.4","0","z","NA","NA","z","333","NA","NA","333","legacy","experiment","1691066","even","legacy","49380","NA","NA","NA","NA","286586","NA","NA","284629","286241","3231","286587","283115","283102","286241","3231","CogMod 2015 Experiment","73","25771","73","yes","1024"
"1","1600","-150","15","100","100","352","352","white","no","xpyriment","legacy","legacy","0","uniform","1","1","z","0","0","0","0","0","73","NA","NA","73","73","0","73","73","73","73","0","11/30/15 06:26:47","Default description","no","mono","no","18","black","Ok","768","legacy","C:/Users/Schaftenaar/Downloads/subject-1691066.csv","xpyriment","Interactive Ising","3.0.4","0","z","NA","NA","z","340","NA","NA","340","legacy","experiment","1691066","even","legacy","49380","NA","NA","NA","NA","290395","NA","NA","288430","290042","3231","290395","286918","286906","290042","3231","CogMod 2015 Experiment","74","26111","74","yes","1024"
"1","1600","-150","15","100","100","352","352","white","no","xpyriment","legacy","legacy","0","uniform","1","1","z","0","0","0","0","0","74","NA","NA","74","74","0","74","74","74","74","0","11/30/15 06:26:47","Default description","no","mono","no","18","black","Ok","768","legacy","C:/Users/Schaftenaar/Downloads/subject-1691066.csv","xpyriment","Interactive Ising","3.0.4","0","z","NA","NA","z","334","NA","NA","334","legacy","experiment","1691066","even","legacy","49380","NA","NA","NA","NA","294203","NA","NA","292244","293856","3231","294203","290732","290719","293856","3231","CogMod 2015 Experiment","75","26445","75","yes","1024"
"1","1200","150","15","100","100","353","353","white","no","xpyriment","legacy","legacy","0","uniform","1","1","m","0","0","0","0","0","75","NA","NA","75","75","0","75","75","75","75","0","11/30/15 06:26:47","Default description","no","mono","no","18","black","Ok","768","legacy","C:/Users/Schaftenaar/Downloads/subject-1691066.csv","xpyriment","Interactive Ising","3.0.4","0","m","NA","NA","m","393","NA","NA","393","legacy","experiment","1691066","even","legacy","49380","NA","NA","NA","NA","297658","NA","NA","296041","297253","3231","297658","294529","294517","297253","3231","CogMod 2015 Experiment","76","26838","76","yes","1024"
"1","800","-150","15","100","100","353","353","white","no","xpyriment","legacy","legacy","0","uniform","1","1","z","0","0","0","0","0","76","NA","NA","76","76","0","76","76","76","76","0","11/30/15 06:26:47","Default description","no","mono","no","18","black","Ok","768","legacy","C:/Users/Schaftenaar/Downloads/subject-1691066.csv","xpyriment","Interactive Ising","3.0.4","0","z","NA","NA","z","380","NA","NA","380","legacy","experiment","1691066","even","legacy","49380","NA","NA","NA","NA","300762","NA","NA","299558","300370","3231","300763","298046","298032","300370","3231","CogMod 2015 Experiment","77","27218","77","yes","1024"
"1","1600","-150","15","100","100","353","353","white","no","xpyriment","legacy","legacy","0","uniform","1","1","z","0","0","0","0","0","77","NA","NA","77","77","0","77","77","77","77","0","11/30/15 06:26:47","Default description","no","mono","no","18","black","Ok","768","legacy","C:/Users/Schaftenaar/Downloads/subject-1691066.csv","xpyriment","Interactive Ising","3.0.4","0","z","NA","NA","z","366","NA","NA","366","legacy","experiment","1691066","even","legacy","49380","NA","NA","NA","NA","304620","NA","NA","302628","304240","3231","304620","301116","301103","304240","3231","CogMod 2015 Experiment","78","27584","78","yes","1024"
"1","1200","-150","15","100","100","353","353","white","no","xpyriment","legacy","legacy","0","uniform","1","1","z","0","0","0","0","0","78","NA","NA","78","78","0","78","78","78","78","0","11/30/15 06:26:47","Default description","no","mono","no","18","black","Ok","768","legacy","C:/Users/Schaftenaar/Downloads/subject-1691066.csv","xpyriment","Interactive Ising","3.0.4","0","z","NA","NA","z","349","NA","NA","349","legacy","experiment","1691066","even","legacy","49380","NA","NA","NA","NA","308074","NA","NA","306498","307713","3231","308074","304985","304973","307713","3231","CogMod 2015 Experiment","79","27933","79","yes","1024"
"1","1600","150","15","100","100","353","353","white","no","xpyriment","legacy","legacy","0","uniform","1","1","m","0","0","0","0","0","79","NA","NA","79","79","0","79","79","79","79","0","11/30/15 06:26:47","Default description","no","mono","no","18","black","Ok","768","legacy","C:/Users/Schaftenaar/Downloads/subject-1691066.csv","xpyriment","Interactive Ising","3.0.4","0","m","NA","NA","m","344","NA","NA","344","legacy","experiment","1691066","even","legacy","49380","NA","NA","NA","NA","311923","NA","NA","309953","311565","3231","311924","308441","308425","311565","3231","CogMod 2015 Experiment","80","28277","80","yes","1024"
"1","400","-150","15","100","100","354","354","white","no","xpyriment","legacy","legacy","0","uniform","1","1","z","0","0","0","0","0","80","NA","NA","80","80","0","80","80","80","80","0","11/30/15 06:26:47","Default description","no","mono","no","18","black","Ok","768","legacy","C:/Users/Schaftenaar/Downloads/subject-1691066.csv","xpyriment","Interactive Ising","3.0.4","0","z","NA","NA","z","398","NA","NA","398","legacy","experiment","1691066","even","legacy","49380","NA","NA","NA","NA","315010","NA","NA","314187","314599","3231","315010","312672","312658","314599","3231","CogMod 2015 Experiment","81","28675","81","yes","1024"
"1","400","150","15","100","100","354","354","white","no","xpyriment","legacy","legacy","0","uniform","1","1","m","0","0","0","0","0","81","NA","NA","81","81","0","81","81","81","81","0","11/30/15 06:26:47","Default description","no","mono","no","18","black","Ok","768","legacy","C:/Users/Schaftenaar/Downloads/subject-1691066.csv","xpyriment","Interactive Ising","3.0.4","0","m","NA","NA","m","356","NA","NA","356","legacy","experiment","1691066","even","legacy","49380","NA","NA","NA","NA","317651","NA","NA","316870","317282","3231","317651","315358","315343","317282","3231","CogMod 2015 Experiment","82","29031","82","yes","1024"
"1","400","-150","15","100","100","354","354","white","no","xpyriment","legacy","legacy","0","uniform","1","1","z","0","0","0","0","0","82","NA","NA","82","82","0","82","82","82","82","0","11/30/15 06:26:47","Default description","no","mono","no","18","black","Ok","768","legacy","C:/Users/Schaftenaar/Downloads/subject-1691066.csv","xpyriment","Interactive Ising","3.0.4","0","z","NA","NA","z","388","NA","NA","388","legacy","experiment","1691066","even","legacy","49380","NA","NA","NA","NA","320314","NA","NA","319502","319914","3231","320314","317990","317974","319914","3231","CogMod 2015 Experiment","83","29419","83","yes","1024"
"1","1600","-150","15","100","100","354","354","white","no","xpyriment","legacy","legacy","0","uniform","1","1","z","0","0","0","0","0","83","NA","NA","83","83","0","83","83","83","83","0","11/30/15 06:26:47","Default description","no","mono","no","18","black","Ok","768","legacy","C:/Users/Schaftenaar/Downloads/subject-1691066.csv","xpyriment","Interactive Ising","3.0.4","0","z","NA","NA","z","342","NA","NA","342","legacy","experiment","1691066","even","legacy","49380","NA","NA","NA","NA","324141","NA","NA","322172","323784","3231","324141","320659","320642","323784","3231","CogMod 2015 Experiment","84","29761","84","yes","1024"
"1","1200","150","15","100","100","353","353","white","no","xpyriment","legacy","legacy","0","uniform","1","1","m","0","0","0","0","0","84","NA","NA","84","84","0","84","84","84","84","0","11/30/15 06:26:47","Default description","no","mono","no","18","black","Ok","768","legacy","C:/Users/Schaftenaar/Downloads/subject-1691066.csv","xpyriment","Interactive Ising","3.0.4","0","m","NA","NA","m","310","NA","NA","310","legacy","experiment","1691066","even","legacy","49380","NA","NA","NA","NA","327515","NA","NA","325979","327192","3231","327515","324466","324452","327191","3231","CogMod 2015 Experiment","85","30071","85","yes","1024"
"1","400","150","15","100","100","354","354","white","no","xpyriment","legacy","legacy","0","uniform","1","1","m","0","0","0","0","0","85","NA","NA","85","85","0","85","85","85","85","0","11/30/15 06:26:47","Default description","no","mono","no","18","black","Ok","768","legacy","C:/Users/Schaftenaar/Downloads/subject-1691066.csv","xpyriment","Interactive Ising","3.0.4","0","m","NA","NA","m","402","NA","NA","402","legacy","experiment","1691066","even","legacy","49380","NA","NA","NA","NA","330170","NA","NA","329343","329755","3231","330170","327831","327817","329755","3231","CogMod 2015 Experiment","86","30473","86","yes","1024"
"1","800","-150","15","100","100","353","353","white","no","xpyriment","legacy","legacy","0","uniform","1","1","z","0","0","0","0","0","86","NA","NA","86","86","0","86","86","86","86","0","11/30/15 06:26:47","Default description","no","mono","no","18","black","Ok","768","legacy","C:/Users/Schaftenaar/Downloads/subject-1691066.csv","xpyriment","Interactive Ising","3.0.4","0","z","NA","NA","z","306","NA","NA","306","legacy","experiment","1691066","even","legacy","49380","NA","NA","NA","NA","333162","NA","NA","332032","332844","3231","333162","330519","330496","332844","3231","CogMod 2015 Experiment","87","30779","87","yes","1024"
"1","1200","150","15","100","100","353","353","white","no","xpyriment","legacy","legacy","0","uniform","1","1","m","0","0","0","0","0","87","NA","NA","87","87","0","87","87","87","87","0","11/30/15 06:26:47","Default description","no","mono","no","18","black","Ok","768","legacy","C:/Users/Schaftenaar/Downloads/subject-1691066.csv","xpyriment","Interactive Ising","3.0.4","0","m","NA","NA","m","325","NA","NA","325","legacy","experiment","1691066","even","legacy","49380","NA","NA","NA","NA","336554","NA","NA","335005","336217","3231","336554","333493","333480","336217","3231","CogMod 2015 Experiment","88","31104","88","yes","1024"
"1","1200","150","15","100","100","353","353","white","no","xpyriment","legacy","legacy","0","uniform","1","1","m","0","0","0","0","0","88","NA","NA","88","88","0","88","88","88","88","0","11/30/15 06:26:47","Default description","no","mono","no","18","black","Ok","768","legacy","C:/Users/Schaftenaar/Downloads/subject-1691066.csv","xpyriment","Interactive Ising","3.0.4","0","m","NA","NA","m","354","NA","NA","354","legacy","experiment","1691066","even","legacy","49380","NA","NA","NA","NA","339988","NA","NA","338408","339620","3231","339989","336896","336882","339620","3231","CogMod 2015 Experiment","89","31458","89","yes","1024"
"1","800","150","15","98.8888888889","98.8888888889","353","353","white","no","xpyriment","legacy","legacy","0","uniform","0","0","m","0","0","0","0","0","89","NA","NA","89","89","0","89","89","89","89","0","11/30/15 06:26:47","Default description","no","mono","no","18","black","Ok","768","legacy","C:/Users/Schaftenaar/Downloads/subject-1691066.csv","xpyriment","Interactive Ising","3.0.4","0","z","NA","NA","z","368","NA","NA","368","legacy","experiment","1691066","even","legacy","49380","NA","NA","NA","NA","343026","NA","NA","341833","342645","3231","343026","340321","340297","342645","3231","CogMod 2015 Experiment","89","31826","90","yes","1024"
"1","1200","-150","15","98.9010989011","98.9010989011","353","353","white","no","xpyriment","legacy","legacy","0","uniform","1","1","z","0","0","0","0","0","90","NA","NA","90","90","0","90","90","90","90","0","11/30/15 06:26:47","Default description","no","mono","no","18","black","Ok","768","legacy","C:/Users/Schaftenaar/Downloads/subject-1691066.csv","xpyriment","Interactive Ising","3.0.4","0","z","NA","NA","z","374","NA","NA","374","legacy","experiment","1691066","even","legacy","49380","NA","NA","NA","NA","346475","NA","NA","344876","346088","3231","346475","343364","343351","346088","3231","CogMod 2015 Experiment","90","32200","91","yes","1024"
"1","1600","-150","15","98.9130434783","98.9130434783","354","354","white","no","xpyriment","legacy","legacy","0","uniform","1","1","z","0","0","0","0","0","91","NA","NA","91","91","0","91","91","91","91","0","11/30/15 06:26:47","Default description","no","mono","no","18","black","Ok","768","legacy","C:/Users/Schaftenaar/Downloads/subject-1691066.csv","xpyriment","Interactive Ising","3.0.4","0","z","NA","NA","z","370","NA","NA","370","legacy","experiment","1691066","even","legacy","49380","NA","NA","NA","NA","350315","NA","NA","348320","349932","3231","350315","346805","346792","349932","3231","CogMod 2015 Experiment","91","32570","92","yes","1024"
"1","800","150","15","98.9247311828","98.9247311828","353","353","white","no","xpyriment","legacy","legacy","0","uniform","1","1","m","0","0","0","0","0","92","NA","NA","92","92","0","92","92","92","92","0","11/30/15 06:26:47","Default description","no","mono","no","18","black","Ok","768","legacy","C:/Users/Schaftenaar/Downloads/subject-1691066.csv","xpyriment","Interactive Ising","3.0.4","0","m","NA","NA","m","339","NA","NA","339","legacy","experiment","1691066","even","legacy","49380","NA","NA","NA","NA","353332","NA","NA","352167","352979","3231","353332","350655","350642","352979","3231","CogMod 2015 Experiment","92","32909","93","yes","1024"
"1","800","150","15","98.9361702128","98.9361702128","353","353","white","no","xpyriment","legacy","legacy","0","uniform","1","1","m","0","0","0","0","0","93","NA","NA","93","93","0","93","93","93","93","0","11/30/15 06:26:47","Default description","no","mono","no","18","black","Ok","768","legacy","C:/Users/Schaftenaar/Downloads/subject-1691066.csv","xpyriment","Interactive Ising","3.0.4","0","m","NA","NA","m","345","NA","NA","345","legacy","experiment","1691066","even","legacy","49380","NA","NA","NA","NA","356362","NA","NA","355193","356005","3231","356362","353678","353665","356005","3231","CogMod 2015 Experiment","93","33254","94","yes","1024"
"1","1600","150","15","98.9473684211","98.9473684211","353","353","white","no","xpyriment","legacy","legacy","0","uniform","1","1","m","0","0","0","0","0","94","NA","NA","94","94","0","94","94","94","94","0","11/30/15 06:26:47","Default description","no","mono","no","18","black","Ok","768","legacy","C:/Users/Schaftenaar/Downloads/subject-1691066.csv","xpyriment","Interactive Ising","3.0.4","0","m","NA","NA","m","335","NA","NA","335","legacy","experiment","1691066","even","legacy","49380","NA","NA","NA","NA","360154","NA","NA","358195","359807","3231","360154","356683","356670","359807","3231","CogMod 2015 Experiment","94","33589","95","yes","1024"
"1","800","150","15","98.9583333333","98.9583333333","354","354","white","no","xpyriment","legacy","legacy","0","uniform","1","1","m","0","0","0","0","0","95","NA","NA","95","95","0","95","95","95","95","0","11/30/15 06:26:47","Default description","no","mono","no","18","black","Ok","768","legacy","C:/Users/Schaftenaar/Downloads/subject-1691066.csv","xpyriment","Interactive Ising","3.0.4","0","m","NA","NA","m","411","NA","NA","411","legacy","experiment","1691066","even","legacy","49380","NA","NA","NA","NA","363267","NA","NA","362030","362843","3231","363267","360518","360505","362842","3231","CogMod 2015 Experiment","95","34000","96","yes","1024"
"1","1600","150","15","98.9690721649","98.9690721649","353","353","white","no","xpyriment","legacy","legacy","0","uniform","1","1","m","0","0","0","0","0","96","NA","NA","96","96","0","96","96","96","96","0","11/30/15 06:26:47","Default description","no","mono","no","18","black","Ok","768","legacy","C:/Users/Schaftenaar/Downloads/subject-1691066.csv","xpyriment","Interactive Ising","3.0.4","0","m","NA","NA","m","326","NA","NA","326","legacy","experiment","1691066","even","legacy","49380","NA","NA","NA","NA","367066","NA","NA","365113","366727","3231","367066","363601","363588","366726","3231","CogMod 2015 Experiment","96","34326","97","yes","1024"
"1","1600","150","15","98.9795918367","98.9795918367","353","353","white","no","xpyriment","legacy","legacy","0","uniform","1","1","m","0","0","0","0","0","97","NA","NA","97","97","0","97","97","97","97","0","11/30/15 06:26:47","Default description","no","mono","no","18","black","Ok","768","legacy","C:/Users/Schaftenaar/Downloads/subject-1691066.csv","xpyriment","Interactive Ising","3.0.4","0","m","NA","NA","m","359","NA","NA","359","legacy","experiment","1691066","even","legacy","49380","NA","NA","NA","NA","370890","NA","NA","368907","370519","3231","370890","367395","367382","370519","3231","CogMod 2015 Experiment","97","34685","98","yes","1024"
"1","1600","150","15","98.9898989899","98.9898989899","353","353","white","no","xpyriment","legacy","legacy","0","uniform","1","1","m","0","0","0","0","0","98","NA","NA","98","98","0","98","98","98","98","0","11/30/15 06:26:47","Default description","no","mono","no","18","black","Ok","768","legacy","C:/Users/Schaftenaar/Downloads/subject-1691066.csv","xpyriment","Interactive Ising","3.0.4","0","m","NA","NA","m","310","NA","NA","310","legacy","experiment","1691066","even","legacy","49380","NA","NA","NA","NA","374677","NA","NA","372740","374352","3231","374677","371227","371210","374352","3231","CogMod 2015 Experiment","98","34995","99","yes","1024"
"1","1600","150","15","99","99","354","354","white","no","xpyriment","legacy","legacy","0","uniform","1","1","m","0","0","0","0","0","99","NA","NA","99","99","0","99","99","99","99","0","11/30/15 06:26:47","Default description","no","mono","no","18","black","Ok","768","legacy","C:/Users/Schaftenaar/Downloads/subject-1691066.csv","xpyriment","Interactive Ising","3.0.4","0","m","NA","NA","m","487","NA","NA","487","legacy","experiment","1691066","even","legacy","49380","NA","NA","NA","NA","378627","NA","NA","376511","378126","3231","378627","374999","374986","378126","3231","CogMod 2015 Experiment","99","35482","100","yes","1024"
"1","1200","-150","15","99.0099009901","99.0099009901","355","355","white","no","xpyriment","legacy","legacy","0","uniform","1","1","z","0","0","0","0","0","100","NA","NA","100","100","0","100","100","100","100","0","11/30/15 06:26:47","Default description","no","mono","no","18","black","Ok","768","legacy","C:/Users/Schaftenaar/Downloads/subject-1691066.csv","xpyriment","Interactive Ising","3.0.4","0","z","NA","NA","z","373","NA","NA","373","legacy","experiment","1691066","even","legacy","49380","NA","NA","NA","NA","382066","NA","NA","380468","381680","3231","382066","378954","378941","381680","3231","CogMod 2015 Experiment","100","35855","101","yes","1024"
"1","400","-150","15","99.0196078431","99.0196078431","355","355","white","no","xpyriment","legacy","legacy","0","uniform","1","1","z","0","0","0","0","0","101","NA","NA","101","101","0","101","101","101","101","0","11/30/15 06:26:47","Default description","no","mono","no","18","black","Ok","768","legacy","C:/Users/Schaftenaar/Downloads/subject-1691066.csv","xpyriment","Interactive Ising","3.0.4","0","z","NA","NA","z","358","NA","NA","358","legacy","experiment","1691066","even","legacy","49380","NA","NA","NA","NA","384731","NA","NA","383947","384360","3231","384731","382435","382420","384360","3231","CogMod 2015 Experiment","101","36213","102","yes","1024"
"1","1600","150","15","99.0291262136","99.0291262136","355","355","white","no","xpyriment","legacy","legacy","0","uniform","1","1","m","0","0","0","0","0","102","NA","NA","102","102","0","102","102","102","102","0","11/30/15 06:26:47","Default description","no","mono","no","18","black","Ok","768","legacy","C:/Users/Schaftenaar/Downloads/subject-1691066.csv","xpyriment","Interactive Ising","3.0.4","0","m","NA","NA","m","379","NA","NA","379","legacy","experiment","1691066","even","legacy","49380","NA","NA","NA","NA","388578","NA","NA","386575","388187","3231","388578","385063","385050","388187","3231","CogMod 2015 Experiment","102","36592","103","yes","1024"
"1","400","-150","15","99.0384615385","99.0384615385","355","355","white","no","xpyriment","legacy","legacy","0","uniform","1","1","z","0","0","0","0","0","103","NA","NA","103","103","0","103","103","103","103","0","11/30/15 06:26:47","Default description","no","mono","no","18","black","Ok","768","legacy","C:/Users/Schaftenaar/Downloads/subject-1691066.csv","xpyriment","Interactive Ising","3.0.4","0","z","NA","NA","z","371","NA","NA","371","legacy","experiment","1691066","even","legacy","49380","NA","NA","NA","NA","391252","NA","NA","390455","390867","3231","391252","388943","388927","390867","3231","CogMod 2015 Experiment","103","36963","104","yes","1024"
"1","400","150","15","99.0476190476","99.0476190476","355","355","white","no","xpyriment","legacy","legacy","0","uniform","1","1","m","0","0","0","0","0","104","NA","NA","104","104","0","104","104","104","104","0","11/30/15 06:26:47","Default description","no","mono","no","18","black","Ok","768","legacy","C:/Users/Schaftenaar/Downloads/subject-1691066.csv","xpyriment","Interactive Ising","3.0.4","0","m","NA","NA","m","363","NA","NA","363","legacy","experiment","1691066","even","legacy","49380","NA","NA","NA","NA","393916","NA","NA","393128","393539","3231","393916","391614","391602","393539","3231","CogMod 2015 Experiment","104","37326","105","yes","1024"
"1","1200","150","15","99.0566037736","99.0566037736","355","355","white","no","xpyriment","legacy","legacy","0","uniform","1","1","m","0","0","0","0","0","105","NA","NA","105","105","0","105","105","105","105","0","11/30/15 06:26:47","Default description","no","mono","no","18","black","Ok","768","legacy","C:/Users/Schaftenaar/Downloads/subject-1691066.csv","xpyriment","Interactive Ising","3.0.4","0","m","NA","NA","m","381","NA","NA","381","legacy","experiment","1691066","even","legacy","49380","NA","NA","NA","NA","397362","NA","NA","395757","396969","3231","397362","394243","394227","396969","3231","CogMod 2015 Experiment","105","37707","106","yes","1024"
"1","800","-150","15","99.0654205607","99.0654205607","355","355","white","no","xpyriment","legacy","legacy","0","uniform","1","1","z","0","0","0","0","0","106","NA","NA","106","106","0","106","106","106","106","0","11/30/15 06:26:47","Default description","no","mono","no","18","black","Ok","768","legacy","C:/Users/Schaftenaar/Downloads/subject-1691066.csv","xpyriment","Interactive Ising","3.0.4","0","z","NA","NA","z","320","NA","NA","320","legacy","experiment","1691066","even","legacy","49380","NA","NA","NA","NA","400331","NA","NA","399186","399998","3231","400331","397674","397662","399998","3231","CogMod 2015 Experiment","106","38027","107","yes","1024"
"1","400","-150","15","99.0740740741","99.0740740741","355","355","white","no","xpyriment","legacy","legacy","0","uniform","1","1","z","0","0","0","0","0","107","NA","NA","107","107","0","107","107","107","107","0","11/30/15 06:26:47","Default description","no","mono","no","18","black","Ok","768","legacy","C:/Users/Schaftenaar/Downloads/subject-1691066.csv","xpyriment","Interactive Ising","3.0.4","0","z","NA","NA","z","398","NA","NA","398","legacy","experiment","1691066","even","legacy","49380","NA","NA","NA","NA","403011","NA","NA","402187","402599","3231","403011","400675","400662","402599","3231","CogMod 2015 Experiment","107","38425","108","yes","1024"
"1","800","150","15","99.0825688073","99.0825688073","355","355","white","no","xpyriment","legacy","legacy","0","uniform","1","1","m","0","0","0","0","0","108","NA","NA","108","108","0","108","108","108","108","0","11/30/15 06:26:47","Default description","no","mono","no","18","black","Ok","768","legacy","C:/Users/Schaftenaar/Downloads/subject-1691066.csv","xpyriment","Interactive Ising","3.0.4","0","m","NA","NA","m","304","NA","NA","304","legacy","experiment","1691066","even","legacy","49380","NA","NA","NA","NA","405986","NA","NA","404857","405669","3231","405986","403345","403331","405669","3231","CogMod 2015 Experiment","108","38729","109","yes","1024"
"1","1600","-150","15","99.0909090909","99.0909090909","355","355","white","no","xpyriment","legacy","legacy","0","uniform","1","1","z","0","0","0","0","0","109","NA","NA","109","109","0","109","109","109","109","0","11/30/15 06:26:47","Default description","no","mono","no","18","black","Ok","768","legacy","C:/Users/Schaftenaar/Downloads/subject-1691066.csv","xpyriment","Interactive Ising","3.0.4","0","z","NA","NA","z","351","NA","NA","351","legacy","experiment","1691066","even","legacy","49380","NA","NA","NA","NA","409812","NA","NA","407835","409447","3231","409812","406323","406311","409447","3231","CogMod 2015 Experiment","109","39080","110","yes","1024"
"1","400","150","15","99.0990990991","99.0990990991","355","355","white","no","xpyriment","legacy","legacy","0","uniform","1","1","m","0","0","0","0","0","110","NA","NA","110","110","0","110","110","110","110","0","11/30/15 06:26:47","Default description","no","mono","no","18","black","Ok","768","legacy","C:/Users/Schaftenaar/Downloads/subject-1691066.csv","xpyriment","Interactive Ising","3.0.4","0","m","NA","NA","m","405","NA","NA","405","legacy","experiment","1691066","even","legacy","49380","NA","NA","NA","NA","412515","NA","NA","411685","412097","3231","412515","410171","410157","412097","3231","CogMod 2015 Experiment","110","39485","111","yes","1024"
"1","400","150","15","99.1071428571","99.1071428571","355","355","white","no","xpyriment","legacy","legacy","0","uniform","1","1","m","0","0","0","0","0","111","NA","NA","111","111","0","111","111","111","111","0","11/30/15 06:26:47","Default description","no","mono","no","18","black","Ok","768","legacy","C:/Users/Schaftenaar/Downloads/subject-1691066.csv","xpyriment","Interactive Ising","3.0.4","0","m","NA","NA","m","375","NA","NA","375","legacy","experiment","1691066","even","legacy","49380","NA","NA","NA","NA","415165","NA","NA","414360","414775","3231","415165","412845","412831","414775","3231","CogMod 2015 Experiment","111","39860","112","yes","1024"
"1","800","-150","15","99.1150442478","99.1150442478","355","355","white","no","xpyriment","legacy","legacy","0","uniform","1","1","z","0","0","0","0","0","112","NA","NA","112","112","0","112","112","112","112","0","11/30/15 06:26:47","Default description","no","mono","no","18","black","Ok","768","legacy","C:/Users/Schaftenaar/Downloads/subject-1691066.csv","xpyriment","Interactive Ising","3.0.4","0","z","NA","NA","z","335","NA","NA","335","legacy","experiment","1691066","even","legacy","49380","NA","NA","NA","NA","418163","NA","NA","417003","417815","3231","418163","415491","415474","417815","3231","CogMod 2015 Experiment","112","40195","113","yes","1024"
"1","800","150","15","99.1228070175","99.1228070175","355","355","white","no","xpyriment","legacy","legacy","0","uniform","1","1","m","0","0","0","0","0","113","NA","NA","113","113","0","113","113","113","113","0","11/30/15 06:26:47","Default description","no","mono","no","18","black","Ok","768","legacy","C:/Users/Schaftenaar/Downloads/subject-1691066.csv","xpyriment","Interactive Ising","3.0.4","0","m","NA","NA","m","348","NA","NA","348","legacy","experiment","1691066","even","legacy","49380","NA","NA","NA","NA","421218","NA","NA","420046","420858","3231","421219","418533","418520","420858","3231","CogMod 2015 Experiment","113","40543","114","yes","1024"
"1","800","-150","15","99.1304347826","99.1304347826","355","355","white","no","xpyriment","legacy","legacy","0","uniform","1","1","z","0","0","0","0","0","114","NA","NA","114","114","0","114","114","114","114","0","11/30/15 06:26:47","Default description","no","mono","no","18","black","Ok","768","legacy","C:/Users/Schaftenaar/Downloads/subject-1691066.csv","xpyriment","Interactive Ising","3.0.4","0","z","NA","NA","z","360","NA","NA","360","legacy","experiment","1691066","even","legacy","49380","NA","NA","NA","NA","424259","NA","NA","423074","423886","3231","424259","421562","421549","423886","3231","CogMod 2015 Experiment","114","40903","115","yes","1024"
"1","800","-150","15","99.1379310345","99.1379310345","357","357","white","no","xpyriment","legacy","legacy","0","uniform","1","1","z","0","0","0","0","0","115","NA","NA","115","115","0","115","115","115","115","0","11/30/15 06:26:47","Default description","no","mono","no","18","black","Ok","768","legacy","C:/Users/Schaftenaar/Downloads/subject-1691066.csv","xpyriment","Interactive Ising","3.0.4","0","z","NA","NA","z","552","NA","NA","552","legacy","experiment","1691066","even","legacy","49380","NA","NA","NA","NA","427509","NA","NA","426130","426942","3231","427509","424618","424604","426942","3231","CogMod 2015 Experiment","115","41455","116","yes","1024"
"1","1200","-150","15","99.1452991453","99.1452991453","357","357","white","no","xpyriment","legacy","legacy","0","uniform","1","1","z","0","0","0","0","0","116","NA","NA","116","116","0","116","116","116","116","0","11/30/15 06:26:47","Default description","no","mono","no","18","black","Ok","768","legacy","C:/Users/Schaftenaar/Downloads/subject-1691066.csv","xpyriment","Interactive Ising","3.0.4","0","z","NA","NA","z","337","NA","NA","337","legacy","experiment","1691066","even","legacy","49380","NA","NA","NA","NA","430963","NA","NA","429401","430613","3231","430963","427889","427877","430613","3231","CogMod 2015 Experiment","116","41792","117","yes","1024"
"1","800","-150","15","99.1525423729","99.1525423729","357","357","white","no","xpyriment","legacy","legacy","0","uniform","1","1","z","0","0","0","0","0","117","NA","NA","117","117","0","117","117","117","117","0","11/30/15 06:26:47","Default description","no","mono","no","18","black","Ok","768","legacy","C:/Users/Schaftenaar/Downloads/subject-1691066.csv","xpyriment","Interactive Ising","3.0.4","0","z","NA","NA","z","444","NA","NA","444","legacy","experiment","1691066","even","legacy","49380","NA","NA","NA","NA","434067","NA","NA","432798","433610","3231","434067","431286","431274","433610","3231","CogMod 2015 Experiment","117","42236","118","yes","1024"
"1","800","-150","15","99.1596638655","99.1596638655","357","357","white","no","xpyriment","legacy","legacy","0","uniform","1","1","z","0","0","0","0","0","118","NA","NA","118","118","0","118","118","118","118","0","11/30/15 06:26:47","Default description","no","mono","no","18","black","Ok","768","legacy","C:/Users/Schaftenaar/Downloads/subject-1691066.csv","xpyriment","Interactive Ising","3.0.4","0","z","NA","NA","z","363","NA","NA","363","legacy","experiment","1691066","even","legacy","49380","NA","NA","NA","NA","437099","NA","NA","435911","436723","3231","437099","434399","434385","436723","3231","CogMod 2015 Experiment","118","42599","119","yes","1024"
"1","400","150","15","99.1666666667","99.1666666667","358","358","white","no","xpyriment","legacy","legacy","0","uniform","1","1","m","0","0","0","0","0","119","NA","NA","119","119","0","119","119","119","119","0","11/30/15 06:26:47","Default description","no","mono","no","18","black","Ok","768","legacy","C:/Users/Schaftenaar/Downloads/subject-1691066.csv","xpyriment","Interactive Ising","3.0.4","0","m","NA","NA","m","378","NA","NA","378","legacy","experiment","1691066","even","legacy","49380","NA","NA","NA","NA","439746","NA","NA","438943","439355","3231","439746","437431","437418","439355","3231","CogMod 2015 Experiment","119","42977","120","yes","1024"
"2","1600","-150","32","100","100","339","339","white","no","xpyriment","legacy","legacy","0","uniform","1","1","z","0","0","0","0","0","120","0","NA","120","120","0","120","120","120","120","0","11/30/15 06:26:47","Default description","no","mono","no","18","black","Ok","768","legacy","C:/Users/Schaftenaar/Downloads/subject-1691066.csv","xpyriment","Interactive Ising","3.0.4","0","z","m","NA","z","339","21967","NA","339","legacy","experiment","1691066","even","legacy","49380","462094","NA","NA","NA","465894","440127","NA","463917","465531","3231","465894","462405","462390","465531","3231","CogMod 2015 Experiment","1","339","1","yes","1024"
"2","1200","-150","16","100","100","330","330","white","no","xpyriment","legacy","legacy","0","uniform","1","1","z","0","0","0","0","0","121","0","NA","121","121","0","121","121","121","121","0","11/30/15 06:26:47","Default description","no","mono","no","18","black","Ok","768","legacy","C:/Users/Schaftenaar/Downloads/subject-1691066.csv","xpyriment","Interactive Ising","3.0.4","0","z","m","NA","z","321","21967","NA","321","legacy","experiment","1691066","even","legacy","49380","462094","NA","NA","NA","469300","440127","NA","467752","468965","3231","469300","466240","466225","468965","3231","CogMod 2015 Experiment","2","660","2","yes","1024"
"2","1600","150","32","100","100","339","339","white","no","xpyriment","legacy","legacy","0","uniform","1","1","m","0","0","0","0","0","122","0","NA","122","122","0","122","122","122","122","0","11/30/15 06:26:47","Default description","no","mono","no","18","black","Ok","768","legacy","C:/Users/Schaftenaar/Downloads/subject-1691066.csv","xpyriment","Interactive Ising","3.0.4","0","m","m","NA","m","358","21967","NA","358","legacy","experiment","1691066","even","legacy","49380","462094","NA","NA","NA","473155","440127","NA","471172","472784","3231","473155","469656","469642","472784","3231","CogMod 2015 Experiment","3","1018","3","yes","1024"
"2","1200","150","16","100","100","335","335","white","no","xpyriment","legacy","legacy","0","uniform","1","1","m","0","0","0","0","0","123","0","NA","123","123","0","123","123","123","123","0","11/30/15 06:26:47","Default description","no","mono","no","18","black","Ok","768","legacy","C:/Users/Schaftenaar/Downloads/subject-1691066.csv","xpyriment","Interactive Ising","3.0.4","0","m","m","NA","m","323","21967","NA","323","legacy","experiment","1691066","even","legacy","49380","462094","NA","NA","NA","476562","440127","NA","475015","476227","3231","476562","473502","473490","476227","3231","CogMod 2015 Experiment","4","1341","4","yes","1024"
"2","1200","-150","16","100","100","331","331","white","no","xpyriment","legacy","legacy","0","uniform","1","1","z","0","0","0","0","0","124","0","NA","124","124","0","124","124","124","124","0","11/30/15 06:26:47","Default description","no","mono","no","18","black","Ok","768","legacy","C:/Users/Schaftenaar/Downloads/subject-1691066.csv","xpyriment","Interactive Ising","3.0.4","0","z","m","NA","z","317","21967","NA","317","legacy","experiment","1691066","even","legacy","49380","462094","NA","NA","NA","480034","440127","NA","478493","479705","3231","480034","476981","476966","479705","3231","CogMod 2015 Experiment","5","1658","5","yes","1024"
"2","1200","-150","16","100","100","337","337","white","no","xpyriment","legacy","legacy","0","uniform","1","1","z","0","0","0","0","0","125","0","NA","125","125","0","125","125","125","125","0","11/30/15 06:26:47","Default description","no","mono","no","18","black","Ok","768","legacy","C:/Users/Schaftenaar/Downloads/subject-1691066.csv","xpyriment","Interactive Ising","3.0.4","0","z","m","NA","z","366","21967","NA","366","legacy","experiment","1691066","even","legacy","49380","462094","NA","NA","NA","483523","440127","NA","481932","483144","3231","483523","480418","480405","483144","3231","CogMod 2015 Experiment","6","2024","6","yes","1024"
"2","1200","150","16","100","100","340","340","white","no","xpyriment","legacy","legacy","0","uniform","1","1","m","0","0","0","0","0","126","0","NA","126","126","0","126","126","126","126","0","11/30/15 06:26:47","Default description","no","mono","no","18","black","Ok","768","legacy","C:/Users/Schaftenaar/Downloads/subject-1691066.csv","xpyriment","Interactive Ising","3.0.4","0","m","m","NA","m","358","21967","NA","358","legacy","experiment","1691066","even","legacy","49380","462094","NA","NA","NA","486956","440127","NA","485372","486584","3231","486956","483860","483847","486584","3231","CogMod 2015 Experiment","7","2382","7","yes","1024"
"2","1600","150","32","87.5","87.5","340","340","white","no","xpyriment","legacy","legacy","0","uniform","0","0","m","0","0","0","0","0","127","0","NA","127","127","0","127","127","127","127","0","11/30/15 06:26:47","Default description","no","mono","no","18","black","Ok","768","legacy","C:/Users/Schaftenaar/Downloads/subject-1691066.csv","xpyriment","Interactive Ising","3.0.4","0","z","m","NA","z","342","21967","NA","342","legacy","experiment","1691066","even","legacy","49380","462094","NA","NA","NA","490773","440127","NA","488803","490416","3231","490773","487291","487275","490416","3231","CogMod 2015 Experiment","7","2724","8","yes","1024"
"2","1600","-150","32","88.8888888889","88.8888888889","338","338","white","no","xpyriment","legacy","legacy","0","uniform","1","1","z","0","0","0","0","0","128","0","NA","128","128","0","128","128","128","128","0","11/30/15 06:26:47","Default description","no","mono","no","18","black","Ok","768","legacy","C:/Users/Schaftenaar/Downloads/subject-1691066.csv","xpyriment","Interactive Ising","3.0.4","0","z","m","NA","z","324","21967","NA","324","legacy","experiment","1691066","even","legacy","49380","462094","NA","NA","NA","494572","440127","NA","492622","494234","3231","494572","491109","491095","494234","3231","CogMod 2015 Experiment","8","3048","9","yes","1024"
"2","800","-150","8","90","90","348","348","white","no","xpyriment","legacy","legacy","0","uniform","1","1","z","0","0","0","0","0","129","0","NA","129","129","0","129","129","129","129","0","11/30/15 06:26:47","Default description","no","mono","no","18","black","Ok","768","legacy","C:/Users/Schaftenaar/Downloads/subject-1691066.csv","xpyriment","Interactive Ising","3.0.4","0","z","m","NA","z","433","21967","NA","433","legacy","experiment","1691066","even","legacy","49380","462094","NA","NA","NA","497677","440127","NA","496416","497229","3231","497677","494902","494889","497229","3231","CogMod 2015 Experiment","9","3481","10","yes","1024"
"2","1200","150","16","90.9090909091","90.9090909091","350","350","white","no","xpyriment","legacy","legacy","0","uniform","1","1","m","0","0","0","0","0","130","0","NA","130","130","0","130","130","130","130","0","11/30/15 06:26:47","Default description","no","mono","no","18","black","Ok","768","legacy","C:/Users/Schaftenaar/Downloads/subject-1691066.csv","xpyriment","Interactive Ising","3.0.4","0","m","m","NA","m","373","21967","NA","373","legacy","experiment","1691066","even","legacy","49380","462094","NA","NA","NA","501116","440127","NA","499517","500729","3231","501116","498005","497992","500729","3231","CogMod 2015 Experiment","10","3854","11","yes","1024"
"2","1600","150","32","91.6666666667","91.6666666667","352","352","white","no","xpyriment","legacy","legacy","0","uniform","1","1","m","0","0","0","0","0","131","0","NA","131","131","0","131","131","131","131","0","11/30/15 06:26:47","Default description","no","mono","no","18","black","Ok","768","legacy","C:/Users/Schaftenaar/Downloads/subject-1691066.csv","xpyriment","Interactive Ising","3.0.4","0","m","m","NA","m","371","21967","NA","371","legacy","experiment","1691066","even","legacy","49380","462094","NA","NA","NA","504956","440127","NA","502959","504571","3231","504956","501447","501434","504571","3231","CogMod 2015 Experiment","11","4225","12","yes","1024"
"2","1600","-150","32","92.3076923077","92.3076923077","349","349","white","no","xpyriment","legacy","legacy","0","uniform","1","1","z","0","0","0","0","0","132","0","NA","132","132","0","132","132","132","132","0","11/30/15 06:26:47","Default description","no","mono","no","18","black","Ok","768","legacy","C:/Users/Schaftenaar/Downloads/subject-1691066.csv","xpyriment","Interactive Ising","3.0.4","0","z","m","NA","z","321","21967","NA","321","legacy","experiment","1691066","even","legacy","49380","462094","NA","NA","NA","508766","440127","NA","506817","508429","3231","508766","505303","505290","508429","3231","CogMod 2015 Experiment","12","4546","13","yes","1024"
"2","400","-150","4","92.8571428571","92.8571428571","383","383","white","no","xpyriment","legacy","legacy","0","uniform","1","1","z","0","0","0","0","0","133","0","NA","133","133","0","133","133","133","133","0","11/30/15 06:26:47","Default description","no","mono","no","18","black","Ok","768","legacy","C:/Users/Schaftenaar/Downloads/subject-1691066.csv","xpyriment","Interactive Ising","3.0.4","0","z","m","NA","z","829","21967","NA","829","legacy","experiment","1691066","even","legacy","49380","462094","NA","NA","NA","511858","440127","NA","510604","511017","3231","511858","509092","509080","511017","3231","CogMod 2015 Experiment","13","5375","14","yes","1024"
"2","1600","-150","32","93.3333333333","93.3333333333","381","381","white","no","xpyriment","legacy","legacy","0","uniform","1","1","z","0","0","0","0","0","134","0","NA","134","134","0","134","134","134","134","0","11/30/15 06:26:47","Default description","no","mono","no","18","black","Ok","768","legacy","C:/Users/Schaftenaar/Downloads/subject-1691066.csv","xpyriment","Interactive Ising","3.0.4","0","z","m","NA","z","350","21967","NA","350","legacy","experiment","1691066","even","legacy","49380","462094","NA","NA","NA","515683","440127","NA","513708","515320","3231","515683","512196","512183","515320","3231","CogMod 2015 Experiment","14","5725","15","yes","1024"
"2","1600","-150","32","93.75","93.75","383","383","white","no","xpyriment","legacy","legacy","0","uniform","1","1","z","0","0","0","0","0","135","0","NA","135","135","0","135","135","135","135","0","11/30/15 06:26:47","Default description","no","mono","no","18","black","Ok","768","legacy","C:/Users/Schaftenaar/Downloads/subject-1691066.csv","xpyriment","Interactive Ising","3.0.4","0","z","m","NA","z","416","21967","NA","416","legacy","experiment","1691066","even","legacy","49380","462094","NA","NA","NA","519571","440127","NA","517530","519142","3231","519571","516018","516006","519142","3231","CogMod 2015 Experiment","15","6141","16","yes","1024"
"2","1200","150","16","94.1176470588","94.1176470588","380","380","white","no","xpyriment","legacy","legacy","0","uniform","1","1","m","0","0","0","0","0","136","0","NA","136","136","0","136","136","136","136","0","11/30/15 06:26:47","Default description","no","mono","no","18","black","Ok","768","legacy","C:/Users/Schaftenaar/Downloads/subject-1691066.csv","xpyriment","Interactive Ising","3.0.4","0","m","m","NA","m","332","21967","NA","332","legacy","experiment","1691066","even","legacy","49380","462094","NA","NA","NA","522962","440127","NA","521406","522618","3231","522962","519894","519881","522618","3231","CogMod 2015 Experiment","16","6473","17","yes","1024"
"2","800","-150","8","94.4444444444","94.4444444444","380","380","white","no","xpyriment","legacy","legacy","0","uniform","1","1","z","0","0","0","0","0","137","0","NA","137","137","0","137","137","137","137","0","11/30/15 06:26:47","Default description","no","mono","no","18","black","Ok","768","legacy","C:/Users/Schaftenaar/Downloads/subject-1691066.csv","xpyriment","Interactive Ising","3.0.4","0","z","m","NA","z","379","21967","NA","379","legacy","experiment","1691066","even","legacy","49380","462094","NA","NA","NA","526018","440127","NA","524815","525627","3231","526018","523303","523287","525627","3231","CogMod 2015 Experiment","17","6852","18","yes","1024"
"2","1600","-150","32","94.7368421053","94.7368421053","379","379","white","no","xpyriment","legacy","legacy","0","uniform","1","1","z","0","0","0","0","0","138","0","NA","138","138","0","138","138","138","138","0","11/30/15 06:26:47","Default description","no","mono","no","18","black","Ok","768","legacy","C:/Users/Schaftenaar/Downloads/subject-1691066.csv","xpyriment","Interactive Ising","3.0.4","0","z","m","NA","z","363","21967","NA","363","legacy","experiment","1691066","even","legacy","49380","462094","NA","NA","NA","529858","440127","NA","527868","529483","3231","529858","526356","526343","529483","3231","CogMod 2015 Experiment","18","7215","19","yes","1024"
"2","1200","150","16","95","95","378","378","white","no","xpyriment","legacy","legacy","0","uniform","1","1","m","0","0","0","0","0","139","0","NA","139","139","0","139","139","139","139","0","11/30/15 06:26:47","Default description","no","mono","no","18","black","Ok","768","legacy","C:/Users/Schaftenaar/Downloads/subject-1691066.csv","xpyriment","Interactive Ising","3.0.4","0","m","m","NA","m","356","21967","NA","356","legacy","experiment","1691066","even","legacy","49380","462094","NA","NA","NA","533268","440127","NA","531686","532898","3231","533268","530174","530161","532898","3231","CogMod 2015 Experiment","19","7571","20","yes","1024"
"2","1600","-150","32","95.2380952381","95.2380952381","376","376","white","no","xpyriment","legacy","legacy","0","uniform","1","1","z","0","0","0","0","0","140","0","NA","140","140","0","140","140","140","140","0","11/30/15 06:26:47","Default description","no","mono","no","18","black","Ok","768","legacy","C:/Users/Schaftenaar/Downloads/subject-1691066.csv","xpyriment","Interactive Ising","3.0.4","0","z","m","NA","z","342","21967","NA","342","legacy","experiment","1691066","even","legacy","49380","462094","NA","NA","NA","537076","440127","NA","535108","536720","3231","537076","533593","533580","536720","3231","CogMod 2015 Experiment","20","7913","21","yes","1024"
"2","1600","-150","32","95.4545454545","95.4545454545","376","376","white","no","xpyriment","legacy","legacy","0","uniform","1","1","z","0","0","0","0","0","141","0","NA","141","141","0","141","141","141","141","0","11/30/15 06:26:47","Default description","no","mono","no","18","black","Ok","768","legacy","C:/Users/Schaftenaar/Downloads/subject-1691066.csv","xpyriment","Interactive Ising","3.0.4","0","z","m","NA","z","371","21967","NA","371","legacy","experiment","1691066","even","legacy","49380","462094","NA","NA","NA","540930","440127","NA","538933","540547","3231","540931","537418","537403","540546","3231","CogMod 2015 Experiment","21","8284","22","yes","1024"
"2","1600","-150","32","95.652173913","95.652173913","375","375","white","no","xpyriment","legacy","legacy","0","uniform","1","1","z","0","0","0","0","0","142","0","NA","142","142","0","142","142","142","142","0","11/30/15 06:26:47","Default description","no","mono","no","18","black","Ok","768","legacy","C:/Users/Schaftenaar/Downloads/subject-1691066.csv","xpyriment","Interactive Ising","3.0.4","0","z","m","NA","z","352","21967","NA","352","legacy","experiment","1691066","even","legacy","49380","462094","NA","NA","NA","544762","440127","NA","542786","544398","3231","544762","541274","541262","544398","3231","CogMod 2015 Experiment","22","8636","23","yes","1024"
"2","1600","-150","32","95.8333333333","95.8333333333","375","375","white","no","xpyriment","legacy","legacy","0","uniform","1","1","z","0","0","0","0","0","143","0","NA","143","143","0","143","143","143","143","0","11/30/15 06:26:47","Default description","no","mono","no","18","black","Ok","768","legacy","C:/Users/Schaftenaar/Downloads/subject-1691066.csv","xpyriment","Interactive Ising","3.0.4","0","z","m","NA","z","371","21967","NA","371","legacy","experiment","1691066","even","legacy","49380","462094","NA","NA","NA","548627","440127","NA","546631","548243","3231","548627","545116","545104","548243","3231","CogMod 2015 Experiment","23","9007","24","yes","1024"
"2","1600","-150","32","96","96","374","374","white","no","xpyriment","legacy","legacy","0","uniform","1","1","z","0","0","0","0","0","144","0","NA","144","144","0","144","144","144","144","0","11/30/15 06:26:47","Default description","no","mono","no","18","black","Ok","768","legacy","C:/Users/Schaftenaar/Downloads/subject-1691066.csv","xpyriment","Interactive Ising","3.0.4","0","z","m","NA","z","365","21967","NA","365","legacy","experiment","1691066","even","legacy","49380","462094","NA","NA","NA","552469","440127","NA","550476","552089","3231","552469","548964","548952","552088","3231","CogMod 2015 Experiment","24","9372","25","yes","1024"
"2","1600","150","32","96.1538461538","96.1538461538","374","374","white","no","xpyriment","legacy","legacy","0","uniform","1","1","m","0","0","0","0","0","145","0","NA","145","145","0","145","145","145","145","0","11/30/15 06:26:47","Default description","no","mono","no","18","black","Ok","768","legacy","C:/Users/Schaftenaar/Downloads/subject-1691066.csv","xpyriment","Interactive Ising","3.0.4","0","m","m","NA","m","363","21967","NA","363","legacy","experiment","1691066","even","legacy","49380","462094","NA","NA","NA","556314","440127","NA","554327","555939","3231","556314","552815","552798","555939","3231","CogMod 2015 Experiment","25","9735","26","yes","1024"
"2","1600","150","32","96.2962962963","96.2962962963","373","373","white","no","xpyriment","legacy","legacy","0","uniform","1","1","m","0","0","0","0","0","146","0","NA","146","146","0","146","146","146","146","0","11/30/15 06:26:47","Default description","no","mono","no","18","black","Ok","768","legacy","C:/Users/Schaftenaar/Downloads/subject-1691066.csv","xpyriment","Interactive Ising","3.0.4","0","m","m","NA","m","351","21967","NA","351","legacy","experiment","1691066","even","legacy","49380","462094","NA","NA","NA","560146","440127","NA","558170","559782","3231","560146","556658","556645","559782","3231","CogMod 2015 Experiment","26","10086","27","yes","1024"
"2","1600","-150","32","96.4285714286","96.4285714286","371","371","white","no","xpyriment","legacy","legacy","0","uniform","1","1","z","0","0","0","0","0","147","0","NA","147","147","0","147","147","147","147","0","11/30/15 06:26:47","Default description","no","mono","no","18","black","Ok","768","legacy","C:/Users/Schaftenaar/Downloads/subject-1691066.csv","xpyriment","Interactive Ising","3.0.4","0","z","m","NA","z","329","21967","NA","329","legacy","experiment","1691066","even","legacy","49380","462094","NA","NA","NA","564020","440127","NA","562065","563677","3231","564020","560553","560538","563677","3231","CogMod 2015 Experiment","27","10415","28","yes","1024"
"2","1600","-150","32","96.5517241379","96.5517241379","370","370","white","no","xpyriment","legacy","legacy","0","uniform","1","1","z","0","0","0","0","0","148","0","NA","148","148","0","148","148","148","148","0","11/30/15 06:26:47","Default description","no","mono","no","18","black","Ok","768","legacy","C:/Users/Schaftenaar/Downloads/subject-1691066.csv","xpyriment","Interactive Ising","3.0.4","0","z","m","NA","z","335","21967","NA","335","legacy","experiment","1691066","even","legacy","49380","462094","NA","NA","NA","568523","440127","NA","566563","568175","3231","568523","565051","565036","568175","3231","CogMod 2015 Experiment","28","10750","29","yes","1024"
"2","1600","-150","32","96.6666666667","96.6666666667","370","370","white","no","xpyriment","legacy","legacy","0","uniform","1","1","z","0","0","0","0","0","149","0","NA","149","149","0","149","149","149","149","0","11/30/15 06:26:47","Default description","no","mono","no","18","black","Ok","768","legacy","C:/Users/Schaftenaar/Downloads/subject-1691066.csv","xpyriment","Interactive Ising","3.0.4","0","z","m","NA","z","363","21967","NA","363","legacy","experiment","1691066","even","legacy","49380","462094","NA","NA","NA","572365","440127","NA","570374","571987","3231","572365","568862","568849","571987","3231","CogMod 2015 Experiment","29","11113","30","yes","1024"
"2","800","150","8","96.7741935484","96.7741935484","368","368","white","no","xpyriment","legacy","legacy","0","uniform","1","1","m","0","0","0","0","0","150","0","NA","150","150","0","150","150","150","150","0","11/30/15 06:26:47","Default description","no","mono","no","18","black","Ok","768","legacy","C:/Users/Schaftenaar/Downloads/subject-1691066.csv","xpyriment","Interactive Ising","3.0.4","0","m","m","NA","m","319","21967","NA","319","legacy","experiment","1691066","even","legacy","49380","462094","NA","NA","NA","575355","440127","NA","574210","575023","3231","575355","572697","572685","575023","3231","CogMod 2015 Experiment","30","11432","31","yes","1024"
"2","800","-150","8","96.875","96.875","369","369","white","no","xpyriment","legacy","legacy","0","uniform","1","1","z","0","0","0","0","0","151","0","NA","151","151","0","151","151","151","151","0","11/30/15 06:26:47","Default description","no","mono","no","18","black","Ok","768","legacy","C:/Users/Schaftenaar/Downloads/subject-1691066.csv","xpyriment","Interactive Ising","3.0.4","0","z","m","NA","z","395","21967","NA","395","legacy","experiment","1691066","even","legacy","49380","462094","NA","NA","NA","578403","440127","NA","577183","577995","3231","578403","575671","575657","577995","3231","CogMod 2015 Experiment","31","11827","32","yes","1024"
