"Block","Foreperiod","Location","NumRep","acc","accuracy","average_response_time","avg_rt","background","bidi","canvas_backend","clock_backend","color_backend","compensation","coordinates","correct","correct_GetResponse","correct_response","count_Block_1","count_Block_2","count_Block_3","count_Block_4","count_Block_5","count_ClearScreen","count_Feedback","count_Feedback_Final","count_Fixation","count_GetResponse","count_Instructions1","count_LogData","count_PreTrialWait","count_SingleTrial","count_Stimulus","count_experiment","datetime","description","font_bold","font_family","font_italic","font_size","foreground","form_response","height","keyboard_backend","logfile","mouse_backend","opensesame_codename","opensesame_version","repeat_cycle","response","response_Feedback","response_Feedback_Final","response_GetResponse","response_time","response_time_Feedback","response_time_Feedback_Final","response_time_GetResponse","sampler_backend","start","subject_nr","subject_parity","synth_backend","time_Block_1","time_Block_2","time_Block_3","time_Block_4","time_Block_5","time_ClearScreen","time_Feedback","time_Feedback_Final","time_Fixation","time_GetResponse","time_Instructions1","time_LogData","time_PreTrialWait","time_SingleTrial","time_Stimulus","time_experiment","title","total_correct","total_response_time","total_responses","uniform_coordinates","width"
"1","400","150","15","100","100","453","453","white","no","xpyriment","legacy","legacy","0","uniform","1","1","m","0","0","0","0","0","0","NA","NA","0","0","0","0","0","0","0","0","11/27/15 14:25:49","Default description","no","mono","no","18","black","Ok","768","legacy","C:/Users/Andrija/CloudStation/Cognitive Modeling/subject-2820781.csv","xpyriment","Interactive Ising","3.0.3","0","m","NA","NA","m","453","NA","NA","453","legacy","experiment","2820781","odd","legacy","50206","NA","NA","NA","NA","53055","NA","NA","52172","52589","1556","53055","50656","50630","52588","1556","CogMod 2015 Experiment","1","453","1","yes","1024"
"1","400","150","15","100","100","380","380","white","no","xpyriment","legacy","legacy","0","uniform","1","1","m","0","0","0","0","0","1","NA","NA","1","1","0","1","1","1","1","0","11/27/15 14:25:49","Default description","no","mono","no","18","black","Ok","768","legacy","C:/Users/Andrija/CloudStation/Cognitive Modeling/subject-2820781.csv","xpyriment","Interactive Ising","3.0.3","0","m","NA","NA","m","307","NA","NA","307","legacy","experiment","2820781","odd","legacy","50206","NA","NA","NA","NA","55772","NA","NA","55039","55455","1556","55772","53523","53503","55455","1556","CogMod 2015 Experiment","2","760","2","yes","1024"
"1","800","-150","15","100","100","362","362","white","no","xpyriment","legacy","legacy","0","uniform","1","1","z","0","0","0","0","0","2","NA","NA","2","2","0","2","2","2","2","0","11/27/15 14:25:49","Default description","no","mono","no","18","black","Ok","768","legacy","C:/Users/Andrija/CloudStation/Cognitive Modeling/subject-2820781.csv","xpyriment","Interactive Ising","3.0.3","0","z","NA","NA","z","326","NA","NA","326","legacy","experiment","2820781","odd","legacy","50206","NA","NA","NA","NA","58922","NA","NA","57755","58572","1556","58922","56240","56217","58572","1556","CogMod 2015 Experiment","3","1086","3","yes","1024"
"1","800","150","15","100","100","337","337","white","no","xpyriment","legacy","legacy","0","uniform","1","1","m","0","0","0","0","0","3","NA","NA","3","3","0","3","3","3","3","0","11/27/15 14:25:49","Default description","no","mono","no","18","black","Ok","768","legacy","C:/Users/Andrija/CloudStation/Cognitive Modeling/subject-2820781.csv","xpyriment","Interactive Ising","3.0.3","0","m","NA","NA","m","264","NA","NA","264","legacy","experiment","2820781","odd","legacy","50206","NA","NA","NA","NA","61988","NA","NA","60889","61706","1556","61988","59374","59357","61705","1556","CogMod 2015 Experiment","4","1350","4","yes","1024"
"1","800","-150","15","100","100","344","344","white","no","xpyriment","legacy","legacy","0","uniform","1","1","z","0","0","0","0","0","4","NA","NA","4","4","0","4","4","4","4","0","11/27/15 14:25:49","Default description","no","mono","no","18","black","Ok","768","legacy","C:/Users/Andrija/CloudStation/Cognitive Modeling/subject-2820781.csv","xpyriment","Interactive Ising","3.0.3","0","z","NA","NA","z","374","NA","NA","374","legacy","experiment","2820781","odd","legacy","50206","NA","NA","NA","NA","65155","NA","NA","63955","64772","1556","65155","62440","62426","64772","1556","CogMod 2015 Experiment","5","1724","5","yes","1024"
"1","1200","150","15","100","100","329","329","white","no","xpyriment","legacy","legacy","0","uniform","1","1","m","0","0","0","0","0","5","NA","NA","5","5","0","5","5","5","5","0","11/27/15 14:25:49","Default description","no","mono","no","18","black","Ok","768","legacy","C:/Users/Andrija/CloudStation/Cognitive Modeling/subject-2820781.csv","xpyriment","Interactive Ising","3.0.3","0","m","NA","NA","m","255","NA","NA","255","legacy","experiment","2820781","odd","legacy","50206","NA","NA","NA","NA","68605","NA","NA","67122","68339","1556","68606","65606","65586","68339","1556","CogMod 2015 Experiment","6","1979","6","yes","1024"
"1","800","-150","15","100","100","323","323","white","no","xpyriment","legacy","legacy","0","uniform","1","1","z","0","0","0","0","0","6","NA","NA","6","6","0","6","6","6","6","0","11/27/15 14:25:49","Default description","no","mono","no","18","black","Ok","768","legacy","C:/Users/Andrija/CloudStation/Cognitive Modeling/subject-2820781.csv","xpyriment","Interactive Ising","3.0.3","0","z","NA","NA","z","285","NA","NA","285","legacy","experiment","2820781","odd","legacy","50206","NA","NA","NA","NA","71688","NA","NA","70572","71389","1556","71689","69056","69038","71389","1556","CogMod 2015 Experiment","7","2264","7","yes","1024"
"1","1200","-150","15","100","100","322","322","white","no","xpyriment","legacy","legacy","0","uniform","1","1","z","0","0","0","0","0","7","NA","NA","7","7","0","7","7","7","7","0","11/27/15 14:25:49","Default description","no","mono","no","18","black","Ok","768","legacy","C:/Users/Andrija/CloudStation/Cognitive Modeling/subject-2820781.csv","xpyriment","Interactive Ising","3.0.3","0","z","NA","NA","z","313","NA","NA","313","legacy","experiment","2820781","odd","legacy","50206","NA","NA","NA","NA","75205","NA","NA","73655","74873","1556","75205","72140","72125","74872","1556","CogMod 2015 Experiment","8","2577","8","yes","1024"
"1","1600","-150","15","100","100","316","316","white","no","xpyriment","legacy","legacy","0","uniform","1","1","z","0","0","0","0","0","8","NA","NA","8","8","0","8","8","8","8","0","11/27/15 14:25:49","Default description","no","mono","no","18","black","Ok","768","legacy","C:/Users/Andrija/CloudStation/Cognitive Modeling/subject-2820781.csv","xpyriment","Interactive Ising","3.0.3","0","z","NA","NA","z","269","NA","NA","269","legacy","experiment","2820781","odd","legacy","50206","NA","NA","NA","NA","79072","NA","NA","77172","78789","1556","79072","75658","75643","78789","1556","CogMod 2015 Experiment","9","2846","9","yes","1024"
"1","800","150","15","100","100","321","321","white","no","xpyriment","legacy","legacy","0","uniform","1","1","m","0","0","0","0","0","9","NA","NA","9","9","0","9","9","9","9","0","11/27/15 14:25:49","Default description","no","mono","no","18","black","Ok","768","legacy","C:/Users/Andrija/CloudStation/Cognitive Modeling/subject-2820781.csv","xpyriment","Interactive Ising","3.0.3","0","m","NA","NA","m","370","NA","NA","370","legacy","experiment","2820781","odd","legacy","50206","NA","NA","NA","NA","82239","NA","NA","81039","81856","1556","82239","79523","79508","81856","1556","CogMod 2015 Experiment","10","3216","10","yes","1024"
"1","400","150","15","100","100","320","320","white","no","xpyriment","legacy","legacy","0","uniform","1","1","m","0","0","0","0","0","10","NA","NA","10","10","0","10","10","10","10","0","11/27/15 14:25:49","Default description","no","mono","no","18","black","Ok","768","legacy","C:/Users/Andrija/CloudStation/Cognitive Modeling/subject-2820781.csv","xpyriment","Interactive Ising","3.0.3","0","m","NA","NA","m","308","NA","NA","308","legacy","experiment","2820781","odd","legacy","50206","NA","NA","NA","NA","84956","NA","NA","84223","84639","1556","84956","82707","82683","84639","1556","CogMod 2015 Experiment","11","3524","11","yes","1024"
"1","1200","150","15","100","100","319","319","white","no","xpyriment","legacy","legacy","0","uniform","1","1","m","0","0","0","0","0","11","NA","NA","11","11","0","11","11","11","11","0","11/27/15 14:25:49","Default description","no","mono","no","18","black","Ok","768","legacy","C:/Users/Andrija/CloudStation/Cognitive Modeling/subject-2820781.csv","xpyriment","Interactive Ising","3.0.3","0","m","NA","NA","m","312","NA","NA","312","legacy","experiment","2820781","odd","legacy","50206","NA","NA","NA","NA","88473","NA","NA","86923","88139","1556","88473","85407","85392","88139","1556","CogMod 2015 Experiment","12","3836","12","yes","1024"
"1","1200","150","15","100","100","316","316","white","no","xpyriment","legacy","legacy","0","uniform","1","1","m","0","0","0","0","0","12","NA","NA","12","12","0","12","12","12","12","0","11/27/15 14:25:49","Default description","no","mono","no","18","black","Ok","768","legacy","C:/Users/Andrija/CloudStation/Cognitive Modeling/subject-2820781.csv","xpyriment","Interactive Ising","3.0.3","0","m","NA","NA","m","273","NA","NA","273","legacy","experiment","2820781","odd","legacy","50206","NA","NA","NA","NA","91973","NA","NA","90473","91690","1556","91973","88961","88944","91688","1556","CogMod 2015 Experiment","13","4109","13","yes","1024"
"1","1600","150","15","100","100","313","313","white","no","xpyriment","legacy","legacy","0","uniform","1","1","m","0","0","0","0","0","13","NA","NA","13","13","0","13","13","13","13","0","11/27/15 14:25:49","Default description","no","mono","no","18","black","Ok","768","legacy","C:/Users/Andrija/CloudStation/Cognitive Modeling/subject-2820781.csv","xpyriment","Interactive Ising","3.0.3","0","m","NA","NA","m","278","NA","NA","278","legacy","experiment","2820781","odd","legacy","50206","NA","NA","NA","NA","95856","NA","NA","93939","95557","1556","95856","92424","92411","95556","1556","CogMod 2015 Experiment","14","4387","14","yes","1024"
"1","1200","150","15","100","100","310","310","white","no","xpyriment","legacy","legacy","0","uniform","1","1","m","0","0","0","0","0","14","NA","NA","14","14","0","14","14","14","14","0","11/27/15 14:25:49","Default description","no","mono","no","18","black","Ok","768","legacy","C:/Users/Andrija/CloudStation/Cognitive Modeling/subject-2820781.csv","xpyriment","Interactive Ising","3.0.3","0","m","NA","NA","m","267","NA","NA","267","legacy","experiment","2820781","odd","legacy","50206","NA","NA","NA","NA","99339","NA","NA","97839","99056","1556","99339","96325","96306","99056","1556","CogMod 2015 Experiment","15","4654","15","yes","1024"
"1","1600","-150","15","100","100","310","310","white","no","xpyriment","legacy","legacy","0","uniform","1","1","z","0","0","0","0","0","15","NA","NA","15","15","0","15","15","15","15","0","11/27/15 14:25:49","Default description","no","mono","no","18","black","Ok","768","legacy","C:/Users/Andrija/CloudStation/Cognitive Modeling/subject-2820781.csv","xpyriment","Interactive Ising","3.0.3","0","z","NA","NA","z","312","NA","NA","312","legacy","experiment","2820781","odd","legacy","50206","NA","NA","NA","NA","103256","NA","NA","101306","102923","1556","103256","99791","99780","102923","1556","CogMod 2015 Experiment","16","4966","16","yes","1024"
"1","1600","150","15","100","100","308","308","white","no","xpyriment","legacy","legacy","0","uniform","1","1","m","0","0","0","0","0","16","NA","NA","16","16","0","16","16","16","16","0","11/27/15 14:25:49","Default description","no","mono","no","18","black","Ok","768","legacy","C:/Users/Andrija/CloudStation/Cognitive Modeling/subject-2820781.csv","xpyriment","Interactive Ising","3.0.3","0","m","NA","NA","m","283","NA","NA","283","legacy","experiment","2820781","odd","legacy","50206","NA","NA","NA","NA","107139","NA","NA","105223","106840","1556","107140","103709","103687","106839","1556","CogMod 2015 Experiment","17","5249","17","yes","1024"
"1","800","150","15","100","100","308","308","white","no","xpyriment","legacy","legacy","0","uniform","1","1","m","0","0","0","0","0","17","NA","NA","17","17","0","17","17","17","17","0","11/27/15 14:25:49","Default description","no","mono","no","18","black","Ok","768","legacy","C:/Users/Andrija/CloudStation/Cognitive Modeling/subject-2820781.csv","xpyriment","Interactive Ising","3.0.3","0","m","NA","NA","m","304","NA","NA","304","legacy","experiment","2820781","odd","legacy","50206","NA","NA","NA","NA","110239","NA","NA","109106","109923","1556","110239","107591","107577","109923","1556","CogMod 2015 Experiment","18","5553","18","yes","1024"
"1","1200","150","15","100","100","305","305","white","no","xpyriment","legacy","legacy","0","uniform","1","1","m","0","0","0","0","0","18","NA","NA","18","18","0","18","18","18","18","0","11/27/15 14:25:49","Default description","no","mono","no","18","black","Ok","768","legacy","C:/Users/Andrija/CloudStation/Cognitive Modeling/subject-2820781.csv","xpyriment","Interactive Ising","3.0.3","0","m","NA","NA","m","252","NA","NA","252","legacy","experiment","2820781","odd","legacy","50206","NA","NA","NA","NA","113706","NA","NA","112223","113440","1556","113706","110709","110681","113440","1556","CogMod 2015 Experiment","19","5805","19","yes","1024"
"1","800","-150","15","100","100","306","306","white","no","xpyriment","legacy","legacy","0","uniform","1","1","z","0","0","0","0","0","19","NA","NA","19","19","0","19","19","19","19","0","11/27/15 14:25:49","Default description","no","mono","no","18","black","Ok","768","legacy","C:/Users/Andrija/CloudStation/Cognitive Modeling/subject-2820781.csv","xpyriment","Interactive Ising","3.0.3","0","z","NA","NA","z","329","NA","NA","329","legacy","experiment","2820781","odd","legacy","50206","NA","NA","NA","NA","116839","NA","NA","115673","116490","1556","116839","114158","114146","116490","1556","CogMod 2015 Experiment","20","6134","20","yes","1024"
"1","400","150","15","100","100","306","306","white","no","xpyriment","legacy","legacy","0","uniform","1","1","m","0","0","0","0","0","20","NA","NA","20","20","0","20","20","20","20","0","11/27/15 14:25:49","Default description","no","mono","no","18","black","Ok","768","legacy","C:/Users/Andrija/CloudStation/Cognitive Modeling/subject-2820781.csv","xpyriment","Interactive Ising","3.0.3","0","m","NA","NA","m","292","NA","NA","292","legacy","experiment","2820781","odd","legacy","50206","NA","NA","NA","NA","119557","NA","NA","118823","119240","1556","119557","117309","117281","119240","1556","CogMod 2015 Experiment","21","6426","21","yes","1024"
"1","800","150","15","100","100","304","304","white","no","xpyriment","legacy","legacy","0","uniform","1","1","m","0","0","0","0","0","21","NA","NA","21","21","0","21","21","21","21","0","11/27/15 14:25:49","Default description","no","mono","no","18","black","Ok","768","legacy","C:/Users/Andrija/CloudStation/Cognitive Modeling/subject-2820781.csv","xpyriment","Interactive Ising","3.0.3","0","m","NA","NA","m","279","NA","NA","279","legacy","experiment","2820781","odd","legacy","50206","NA","NA","NA","NA","122657","NA","NA","121540","122357","1556","122657","120024","120003","122357","1556","CogMod 2015 Experiment","22","6705","22","yes","1024"
"1","1200","150","15","100","100","303","303","white","no","xpyriment","legacy","legacy","0","uniform","1","1","m","0","0","0","0","0","22","NA","NA","22","22","0","22","22","22","22","0","11/27/15 14:25:49","Default description","no","mono","no","18","black","Ok","768","legacy","C:/Users/Andrija/CloudStation/Cognitive Modeling/subject-2820781.csv","xpyriment","Interactive Ising","3.0.3","0","m","NA","NA","m","284","NA","NA","284","legacy","experiment","2820781","odd","legacy","50206","NA","NA","NA","NA","126140","NA","NA","124623","125840","1556","126140","123109","123092","125840","1556","CogMod 2015 Experiment","23","6989","23","yes","1024"
"1","400","150","15","100","100","303","303","white","no","xpyriment","legacy","legacy","0","uniform","1","1","m","0","0","0","0","0","23","NA","NA","23","23","0","23","23","23","23","0","11/27/15 14:25:49","Default description","no","mono","no","18","black","Ok","768","legacy","C:/Users/Andrija/CloudStation/Cognitive Modeling/subject-2820781.csv","xpyriment","Interactive Ising","3.0.3","0","m","NA","NA","m","297","NA","NA","297","legacy","experiment","2820781","odd","legacy","50206","NA","NA","NA","NA","128840","NA","NA","128107","128523","1556","128840","126591","126571","128523","1556","CogMod 2015 Experiment","24","7286","24","yes","1024"
"1","400","150","15","100","100","302","302","white","no","xpyriment","legacy","legacy","0","uniform","1","1","m","0","0","0","0","0","24","NA","NA","24","24","0","24","24","24","24","0","11/27/15 14:25:49","Default description","no","mono","no","18","black","Ok","768","legacy","C:/Users/Andrija/CloudStation/Cognitive Modeling/subject-2820781.csv","xpyriment","Interactive Ising","3.0.3","0","m","NA","NA","m","268","NA","NA","268","legacy","experiment","2820781","odd","legacy","50206","NA","NA","NA","NA","131507","NA","NA","130807","131224","1556","131507","129292","129278","131224","1556","CogMod 2015 Experiment","25","7554","25","yes","1024"
"1","1600","-150","15","100","100","301","301","white","no","xpyriment","legacy","legacy","0","uniform","1","1","z","0","0","0","0","0","25","NA","NA","25","25","0","25","25","25","25","0","11/27/15 14:25:49","Default description","no","mono","no","18","black","Ok","768","legacy","C:/Users/Andrija/CloudStation/Cognitive Modeling/subject-2820781.csv","xpyriment","Interactive Ising","3.0.3","0","z","NA","NA","z","297","NA","NA","297","legacy","experiment","2820781","odd","legacy","50206","NA","NA","NA","NA","135424","NA","NA","133490","135107","1556","135424","131975","131950","135107","1556","CogMod 2015 Experiment","26","7851","26","yes","1024"
"1","400","-150","15","100","100","302","302","white","no","xpyriment","legacy","legacy","0","uniform","1","1","z","0","0","0","0","0","26","NA","NA","26","26","0","26","26","26","26","0","11/27/15 14:25:49","Default description","no","mono","no","18","black","Ok","768","legacy","C:/Users/Andrija/CloudStation/Cognitive Modeling/subject-2820781.csv","xpyriment","Interactive Ising","3.0.3","0","z","NA","NA","z","325","NA","NA","325","legacy","experiment","2820781","odd","legacy","50206","NA","NA","NA","NA","138157","NA","NA","137390","137807","1556","138157","135875","135857","137807","1556","CogMod 2015 Experiment","27","8176","27","yes","1024"
"1","400","-150","15","100","100","302","302","white","no","xpyriment","legacy","legacy","0","uniform","1","1","z","0","0","0","0","0","27","NA","NA","27","27","0","27","27","27","27","0","11/27/15 14:25:49","Default description","no","mono","no","18","black","Ok","768","legacy","C:/Users/Andrija/CloudStation/Cognitive Modeling/subject-2820781.csv","xpyriment","Interactive Ising","3.0.3","0","z","NA","NA","z","280","NA","NA","280","legacy","experiment","2820781","odd","legacy","50206","NA","NA","NA","NA","140840","NA","NA","140124","140541","1556","140840","138608","138596","140541","1556","CogMod 2015 Experiment","28","8456","28","yes","1024"
"1","1200","150","15","100","100","301","301","white","no","xpyriment","legacy","legacy","0","uniform","1","1","m","0","0","0","0","0","28","NA","NA","28","28","0","28","28","28","28","0","11/27/15 14:25:49","Default description","no","mono","no","18","black","Ok","768","legacy","C:/Users/Andrija/CloudStation/Cognitive Modeling/subject-2820781.csv","xpyriment","Interactive Ising","3.0.3","0","m","NA","NA","m","276","NA","NA","276","legacy","experiment","2820781","odd","legacy","50206","NA","NA","NA","NA","144323","NA","NA","142807","144024","1556","144324","141291","141271","144024","1556","CogMod 2015 Experiment","29","8732","29","yes","1024"
"1","1200","-150","15","100","100","300","300","white","no","xpyriment","legacy","legacy","0","uniform","1","1","z","0","0","0","0","0","29","NA","NA","29","29","0","29","29","29","29","0","11/27/15 14:25:49","Default description","no","mono","no","18","black","Ok","768","legacy","C:/Users/Andrija/CloudStation/Cognitive Modeling/subject-2820781.csv","xpyriment","Interactive Ising","3.0.3","0","z","NA","NA","z","273","NA","NA","273","legacy","experiment","2820781","odd","legacy","50206","NA","NA","NA","NA","147807","NA","NA","146307","147524","1556","147807","144792","144766","147524","1556","CogMod 2015 Experiment","30","9005","30","yes","1024"
"1","1200","-150","15","100","100","299","299","white","no","xpyriment","legacy","legacy","0","uniform","1","1","z","0","0","0","0","0","30","NA","NA","30","30","0","30","30","30","30","0","11/27/15 14:25:49","Default description","no","mono","no","18","black","Ok","768","legacy","C:/Users/Andrija/CloudStation/Cognitive Modeling/subject-2820781.csv","xpyriment","Interactive Ising","3.0.3","0","z","NA","NA","z","270","NA","NA","270","legacy","experiment","2820781","odd","legacy","50206","NA","NA","NA","NA","151274","NA","NA","149774","150991","1556","151274","148259","148237","150991","1556","CogMod 2015 Experiment","31","9275","31","yes","1024"
"1","400","-150","15","100","100","301","301","white","no","xpyriment","legacy","legacy","0","uniform","1","1","z","0","0","0","0","0","31","NA","NA","31","31","0","31","31","31","31","0","11/27/15 14:25:49","Default description","no","mono","no","18","black","Ok","768","legacy","C:/Users/Andrija/CloudStation/Cognitive Modeling/subject-2820781.csv","xpyriment","Interactive Ising","3.0.3","0","z","NA","NA","z","379","NA","NA","379","legacy","experiment","2820781","odd","legacy","50206","NA","NA","NA","NA","154074","NA","NA","153258","153674","1556","154074","151744","151716","153674","1556","CogMod 2015 Experiment","32","9654","32","yes","1024"
"1","400","-150","15","100","100","301","301","white","no","xpyriment","legacy","legacy","0","uniform","1","1","z","0","0","0","0","0","32","NA","NA","32","32","0","32","32","32","32","0","11/27/15 14:25:49","Default description","no","mono","no","18","black","Ok","768","legacy","C:/Users/Andrija/CloudStation/Cognitive Modeling/subject-2820781.csv","xpyriment","Interactive Ising","3.0.3","0","z","NA","NA","z","307","NA","NA","307","legacy","experiment","2820781","odd","legacy","50206","NA","NA","NA","NA","156791","NA","NA","156057","156474","1556","156791","154542","154519","156474","1556","CogMod 2015 Experiment","33","9961","33","yes","1024"
"1","800","-150","15","100","100","300","300","white","no","xpyriment","legacy","legacy","0","uniform","1","1","z","0","0","0","0","0","33","NA","NA","33","33","0","33","33","33","33","0","11/27/15 14:25:49","Default description","no","mono","no","18","black","Ok","768","legacy","C:/Users/Andrija/CloudStation/Cognitive Modeling/subject-2820781.csv","xpyriment","Interactive Ising","3.0.3","0","z","NA","NA","z","270","NA","NA","270","legacy","experiment","2820781","odd","legacy","50206","NA","NA","NA","NA","159857","NA","NA","158757","159575","1556","159857","157243","157229","159574","1556","CogMod 2015 Experiment","34","10231","34","yes","1024"
"1","800","-150","15","100","100","299","299","white","no","xpyriment","legacy","legacy","0","uniform","1","1","z","0","0","0","0","0","34","NA","NA","34","34","0","34","34","34","34","0","11/27/15 14:25:49","Default description","no","mono","no","18","black","Ok","768","legacy","C:/Users/Andrija/CloudStation/Cognitive Modeling/subject-2820781.csv","xpyriment","Interactive Ising","3.0.3","0","z","NA","NA","z","244","NA","NA","244","legacy","experiment","2820781","odd","legacy","50206","NA","NA","NA","NA","162907","NA","NA","161824","162641","1556","162907","160308","160292","162641","1556","CogMod 2015 Experiment","35","10475","35","yes","1024"
"1","1600","-150","15","100","100","299","299","white","no","xpyriment","legacy","legacy","0","uniform","1","1","z","0","0","0","0","0","35","NA","NA","35","35","0","35","35","35","35","0","11/27/15 14:25:49","Default description","no","mono","no","18","black","Ok","768","legacy","C:/Users/Andrija/CloudStation/Cognitive Modeling/subject-2820781.csv","xpyriment","Interactive Ising","3.0.3","0","z","NA","NA","z","309","NA","NA","309","legacy","experiment","2820781","odd","legacy","50206","NA","NA","NA","NA","166950","NA","NA","164991","166608","1556","166950","163480","163453","166607","1556","CogMod 2015 Experiment","36","10784","36","yes","1024"
"1","1200","150","15","100","100","298","298","white","no","xpyriment","legacy","legacy","0","uniform","1","1","m","0","0","0","0","0","36","NA","NA","36","36","0","36","36","36","36","0","11/27/15 14:25:49","Default description","no","mono","no","18","black","Ok","768","legacy","C:/Users/Andrija/CloudStation/Cognitive Modeling/subject-2820781.csv","xpyriment","Interactive Ising","3.0.3","0","m","NA","NA","m","262","NA","NA","262","legacy","experiment","2820781","odd","legacy","50206","NA","NA","NA","NA","170441","NA","NA","168958","170175","1556","170441","167441","167423","170174","1556","CogMod 2015 Experiment","37","11046","37","yes","1024"
"1","1200","150","15","100","100","298","298","white","no","xpyriment","legacy","legacy","0","uniform","1","1","m","0","0","0","0","0","37","NA","NA","37","37","0","37","37","37","37","0","11/27/15 14:25:49","Default description","no","mono","no","18","black","Ok","768","legacy","C:/Users/Andrija/CloudStation/Cognitive Modeling/subject-2820781.csv","xpyriment","Interactive Ising","3.0.3","0","m","NA","NA","m","301","NA","NA","301","legacy","experiment","2820781","odd","legacy","50206","NA","NA","NA","NA","173941","NA","NA","172408","173624","1556","173941","170893","170876","173624","1556","CogMod 2015 Experiment","38","11347","38","yes","1024"
"1","800","150","15","100","100","298","298","white","no","xpyriment","legacy","legacy","0","uniform","1","1","m","0","0","0","0","0","38","NA","NA","38","38","0","38","38","38","38","0","11/27/15 14:25:49","Default description","no","mono","no","18","black","Ok","768","legacy","C:/Users/Andrija/CloudStation/Cognitive Modeling/subject-2820781.csv","xpyriment","Interactive Ising","3.0.3","0","m","NA","NA","m","289","NA","NA","289","legacy","experiment","2820781","odd","legacy","50206","NA","NA","NA","NA","177024","NA","NA","175908","176725","1556","177024","174392","174381","176725","1556","CogMod 2015 Experiment","39","11636","39","yes","1024"
"1","400","-150","15","100","100","299","299","white","no","xpyriment","legacy","legacy","0","uniform","1","1","z","0","0","0","0","0","39","NA","NA","39","39","0","39","39","39","39","0","11/27/15 14:25:49","Default description","no","mono","no","18","black","Ok","768","legacy","C:/Users/Andrija/CloudStation/Cognitive Modeling/subject-2820781.csv","xpyriment","Interactive Ising","3.0.3","0","z","NA","NA","z","326","NA","NA","326","legacy","experiment","2820781","odd","legacy","50206","NA","NA","NA","NA","179741","NA","NA","178991","179408","1556","179741","177476","177470","179408","1556","CogMod 2015 Experiment","40","11962","40","yes","1024"
"1","1200","-150","15","100","100","298","298","white","no","xpyriment","legacy","legacy","0","uniform","1","1","z","0","0","0","0","0","40","NA","NA","40","40","0","40","40","40","40","0","11/27/15 14:25:49","Default description","no","mono","no","18","black","Ok","768","legacy","C:/Users/Andrija/CloudStation/Cognitive Modeling/subject-2820781.csv","xpyriment","Interactive Ising","3.0.3","0","z","NA","NA","z","256","NA","NA","256","legacy","experiment","2820781","odd","legacy","50206","NA","NA","NA","NA","183208","NA","NA","181724","182942","1556","183208","180209","180196","182941","1556","CogMod 2015 Experiment","41","12218","41","yes","1024"
"1","1200","150","15","100","100","297","297","white","no","xpyriment","legacy","legacy","0","uniform","1","1","m","0","0","0","0","0","41","NA","NA","41","41","0","41","41","41","41","0","11/27/15 14:25:49","Default description","no","mono","no","18","black","Ok","768","legacy","C:/Users/Andrija/CloudStation/Cognitive Modeling/subject-2820781.csv","xpyriment","Interactive Ising","3.0.3","0","m","NA","NA","m","278","NA","NA","278","legacy","experiment","2820781","odd","legacy","50206","NA","NA","NA","NA","186691","NA","NA","185191","186408","1556","186691","183676","183659","186408","1556","CogMod 2015 Experiment","42","12496","42","yes","1024"
"1","1600","-150","15","100","100","297","297","white","no","xpyriment","legacy","legacy","0","uniform","1","1","z","0","0","0","0","0","42","NA","NA","42","42","0","42","42","42","42","0","11/27/15 14:25:49","Default description","no","mono","no","18","black","Ok","768","legacy","C:/Users/Andrija/CloudStation/Cognitive Modeling/subject-2820781.csv","xpyriment","Interactive Ising","3.0.3","0","z","NA","NA","z","275","NA","NA","275","legacy","experiment","2820781","odd","legacy","50206","NA","NA","NA","NA","190558","NA","NA","188658","190275","1556","190558","187142","187128","190275","1556","CogMod 2015 Experiment","43","12771","43","yes","1024"
"1","1600","-150","15","100","100","297","297","white","no","xpyriment","legacy","legacy","0","uniform","1","1","z","0","0","0","0","0","43","NA","NA","43","43","0","43","43","43","43","0","11/27/15 14:25:49","Default description","no","mono","no","18","black","Ok","768","legacy","C:/Users/Andrija/CloudStation/Cognitive Modeling/subject-2820781.csv","xpyriment","Interactive Ising","3.0.3","0","z","NA","NA","z","320","NA","NA","320","legacy","experiment","2820781","odd","legacy","50206","NA","NA","NA","NA","194475","NA","NA","192525","194142","1556","194475","191010","190992","194142","1556","CogMod 2015 Experiment","44","13091","44","yes","1024"
"1","1600","150","15","100","100","298","298","white","no","xpyriment","legacy","legacy","0","uniform","1","1","m","0","0","0","0","0","44","NA","NA","44","44","0","44","44","44","44","0","11/27/15 14:25:49","Default description","no","mono","no","18","black","Ok","768","legacy","C:/Users/Andrija/CloudStation/Cognitive Modeling/subject-2820781.csv","xpyriment","Interactive Ising","3.0.3","0","m","NA","NA","m","323","NA","NA","323","legacy","experiment","2820781","odd","legacy","50206","NA","NA","NA","NA","198408","NA","NA","196458","198075","1556","198408","194943","194930","198075","1556","CogMod 2015 Experiment","45","13414","45","yes","1024"
"1","400","-150","15","100","100","298","298","white","no","xpyriment","legacy","legacy","0","uniform","1","1","z","0","0","0","0","0","45","NA","NA","45","45","0","45","45","45","45","0","11/27/15 14:25:49","Default description","no","mono","no","18","black","Ok","768","legacy","C:/Users/Andrija/CloudStation/Cognitive Modeling/subject-2820781.csv","xpyriment","Interactive Ising","3.0.3","0","z","NA","NA","z","326","NA","NA","326","legacy","experiment","2820781","odd","legacy","50206","NA","NA","NA","NA","201142","NA","NA","200375","200792","1556","201142","198860","198851","200792","1556","CogMod 2015 Experiment","46","13740","46","yes","1024"
"1","1200","-150","15","100","100","298","298","white","no","xpyriment","legacy","legacy","0","uniform","1","1","z","0","0","0","0","0","46","NA","NA","46","46","0","46","46","46","46","0","11/27/15 14:25:49","Default description","no","mono","no","18","black","Ok","768","legacy","C:/Users/Andrija/CloudStation/Cognitive Modeling/subject-2820781.csv","xpyriment","Interactive Ising","3.0.3","0","z","NA","NA","z","272","NA","NA","272","legacy","experiment","2820781","odd","legacy","50206","NA","NA","NA","NA","204625","NA","NA","203125","204342","1556","204625","201609","201592","204342","1556","CogMod 2015 Experiment","47","14012","47","yes","1024"
"1","1600","150","15","100","100","297","297","white","no","xpyriment","legacy","legacy","0","uniform","1","1","m","0","0","0","0","0","47","NA","NA","47","47","0","47","47","47","47","0","11/27/15 14:25:49","Default description","no","mono","no","18","black","Ok","768","legacy","C:/Users/Andrija/CloudStation/Cognitive Modeling/subject-2820781.csv","xpyriment","Interactive Ising","3.0.3","0","m","NA","NA","m","268","NA","NA","268","legacy","experiment","2820781","odd","legacy","50206","NA","NA","NA","NA","208508","NA","NA","206609","208226","1556","208508","205094","205068","208225","1556","CogMod 2015 Experiment","48","14280","48","yes","1024"
"1","1200","150","15","100","100","296","296","white","no","xpyriment","legacy","legacy","0","uniform","1","1","m","0","0","0","0","0","48","NA","NA","48","48","0","48","48","48","48","0","11/27/15 14:25:49","Default description","no","mono","no","18","black","Ok","768","legacy","C:/Users/Andrija/CloudStation/Cognitive Modeling/subject-2820781.csv","xpyriment","Interactive Ising","3.0.3","0","m","NA","NA","m","251","NA","NA","251","legacy","experiment","2820781","odd","legacy","50206","NA","NA","NA","NA","211958","NA","NA","210475","211692","1556","211958","208959","208943","211692","1556","CogMod 2015 Experiment","49","14531","49","yes","1024"
"1","400","150","15","100","100","297","297","white","no","xpyriment","legacy","legacy","0","uniform","1","1","m","0","0","0","0","0","49","NA","NA","49","49","0","49","49","49","49","0","11/27/15 14:25:49","Default description","no","mono","no","18","black","Ok","768","legacy","C:/Users/Andrija/CloudStation/Cognitive Modeling/subject-2820781.csv","xpyriment","Interactive Ising","3.0.3","0","m","NA","NA","m","345","NA","NA","345","legacy","experiment","2820781","odd","legacy","50206","NA","NA","NA","NA","214725","NA","NA","213942","214358","1556","214726","212428","212401","214358","1556","CogMod 2015 Experiment","50","14876","50","yes","1024"
"1","400","150","15","100","100","297","297","white","no","xpyriment","legacy","legacy","0","uniform","1","1","m","0","0","0","0","0","50","NA","NA","50","50","0","50","50","50","50","0","11/27/15 14:25:49","Default description","no","mono","no","18","black","Ok","768","legacy","C:/Users/Andrija/CloudStation/Cognitive Modeling/subject-2820781.csv","xpyriment","Interactive Ising","3.0.3","0","m","NA","NA","m","306","NA","NA","306","legacy","experiment","2820781","odd","legacy","50206","NA","NA","NA","NA","217425","NA","NA","216692","217109","1556","217425","215177","215162","217109","1556","CogMod 2015 Experiment","51","15182","51","yes","1024"
"1","800","150","15","100","100","296","296","white","no","xpyriment","legacy","legacy","0","uniform","1","1","m","0","0","0","0","0","51","NA","NA","51","51","0","51","51","51","51","0","11/27/15 14:25:49","Default description","no","mono","no","18","black","Ok","768","legacy","C:/Users/Andrija/CloudStation/Cognitive Modeling/subject-2820781.csv","xpyriment","Interactive Ising","3.0.3","0","m","NA","NA","m","253","NA","NA","253","legacy","experiment","2820781","odd","legacy","50206","NA","NA","NA","NA","220492","NA","NA","219409","220226","1556","220492","217892","217867","220226","1556","CogMod 2015 Experiment","52","15435","52","yes","1024"
"1","1600","-150","15","100","100","296","296","white","no","xpyriment","legacy","legacy","0","uniform","1","1","z","0","0","0","0","0","52","NA","NA","52","52","0","52","52","52","52","0","11/27/15 14:25:49","Default description","no","mono","no","18","black","Ok","768","legacy","C:/Users/Andrija/CloudStation/Cognitive Modeling/subject-2820781.csv","xpyriment","Interactive Ising","3.0.3","0","z","NA","NA","z","283","NA","NA","283","legacy","experiment","2820781","odd","legacy","50206","NA","NA","NA","NA","224376","NA","NA","222459","224076","1556","224376","220942","220932","224076","1556","CogMod 2015 Experiment","53","15718","53","yes","1024"
"1","400","150","15","100","100","296","296","white","no","xpyriment","legacy","legacy","0","uniform","1","1","m","0","0","0","0","0","53","NA","NA","53","53","0","53","53","53","53","0","11/27/15 14:25:49","Default description","no","mono","no","18","black","Ok","768","legacy","C:/Users/Andrija/CloudStation/Cognitive Modeling/subject-2820781.csv","xpyriment","Interactive Ising","3.0.3","0","m","NA","NA","m","295","NA","NA","295","legacy","experiment","2820781","odd","legacy","50206","NA","NA","NA","NA","227092","NA","NA","226359","226776","1556","227092","224843","224817","226776","1556","CogMod 2015 Experiment","54","16013","54","yes","1024"
"1","1600","150","15","100","100","296","296","white","no","xpyriment","legacy","legacy","0","uniform","1","1","m","0","0","0","0","0","54","NA","NA","54","54","0","54","54","54","54","0","11/27/15 14:25:49","Default description","no","mono","no","18","black","Ok","768","legacy","C:/Users/Andrija/CloudStation/Cognitive Modeling/subject-2820781.csv","xpyriment","Interactive Ising","3.0.3","0","m","NA","NA","m","299","NA","NA","299","legacy","experiment","2820781","odd","legacy","50206","NA","NA","NA","NA","230992","NA","NA","229059","230676","1556","230992","227544","227528","230676","1556","CogMod 2015 Experiment","55","16312","55","yes","1024"
"1","400","150","15","100","100","297","297","white","no","xpyriment","legacy","legacy","0","uniform","1","1","m","0","0","0","0","0","55","NA","NA","55","55","0","55","55","55","55","0","11/27/15 14:25:49","Default description","no","mono","no","18","black","Ok","768","legacy","C:/Users/Andrija/CloudStation/Cognitive Modeling/subject-2820781.csv","xpyriment","Interactive Ising","3.0.3","0","m","NA","NA","m","326","NA","NA","326","legacy","experiment","2820781","odd","legacy","50206","NA","NA","NA","NA","233742","NA","NA","232976","233393","1556","233742","231460","231438","233392","1556","CogMod 2015 Experiment","56","16638","56","yes","1024"
"1","800","-150","15","100","100","296","296","white","no","xpyriment","legacy","legacy","0","uniform","1","1","z","0","0","0","0","0","56","NA","NA","56","56","0","56","56","56","56","0","11/27/15 14:25:49","Default description","no","mono","no","18","black","Ok","768","legacy","C:/Users/Andrija/CloudStation/Cognitive Modeling/subject-2820781.csv","xpyriment","Interactive Ising","3.0.3","0","z","NA","NA","z","272","NA","NA","272","legacy","experiment","2820781","odd","legacy","50206","NA","NA","NA","NA","236826","NA","NA","235727","236543","1556","236826","234212","234183","236542","1556","CogMod 2015 Experiment","57","16910","57","yes","1024"
"1","400","-150","15","100","100","296","296","white","no","xpyriment","legacy","legacy","0","uniform","1","1","z","0","0","0","0","0","57","NA","NA","57","57","0","57","57","57","57","0","11/27/15 14:25:49","Default description","no","mono","no","18","black","Ok","768","legacy","C:/Users/Andrija/CloudStation/Cognitive Modeling/subject-2820781.csv","xpyriment","Interactive Ising","3.0.3","0","z","NA","NA","z","278","NA","NA","278","legacy","experiment","2820781","odd","legacy","50206","NA","NA","NA","NA","239509","NA","NA","238793","239209","1556","239509","237277","237263","239209","1556","CogMod 2015 Experiment","58","17188","58","yes","1024"
"1","800","-150","15","100","100","295","295","white","no","xpyriment","legacy","legacy","0","uniform","1","1","z","0","0","0","0","0","58","NA","NA","58","58","0","58","58","58","58","0","11/27/15 14:25:49","Default description","no","mono","no","18","black","Ok","768","legacy","C:/Users/Andrija/CloudStation/Cognitive Modeling/subject-2820781.csv","xpyriment","Interactive Ising","3.0.3","0","z","NA","NA","z","248","NA","NA","248","legacy","experiment","2820781","odd","legacy","50206","NA","NA","NA","NA","242626","NA","NA","241543","242359","1556","242626","240031","240004","242359","1556","CogMod 2015 Experiment","59","17436","59","yes","1024"
"1","400","-150","15","100","100","295","295","white","no","xpyriment","legacy","legacy","0","uniform","1","1","z","0","0","0","0","0","59","NA","NA","59","59","0","59","59","59","59","0","11/27/15 14:25:49","Default description","no","mono","no","18","black","Ok","768","legacy","C:/Users/Andrija/CloudStation/Cognitive Modeling/subject-2820781.csv","xpyriment","Interactive Ising","3.0.3","0","z","NA","NA","z","286","NA","NA","286","legacy","experiment","2820781","odd","legacy","50206","NA","NA","NA","NA","245309","NA","NA","244593","245010","1556","245310","243077","243059","245009","1556","CogMod 2015 Experiment","60","17722","60","yes","1024"
"1","1200","-150","15","100","100","295","295","white","no","xpyriment","legacy","legacy","0","uniform","1","1","z","0","0","0","0","0","60","NA","NA","60","60","0","60","60","60","60","0","11/27/15 14:25:49","Default description","no","mono","no","18","black","Ok","768","legacy","C:/Users/Andrija/CloudStation/Cognitive Modeling/subject-2820781.csv","xpyriment","Interactive Ising","3.0.3","0","z","NA","NA","z","306","NA","NA","306","legacy","experiment","2820781","odd","legacy","50206","NA","NA","NA","NA","248826","NA","NA","247293","248510","1556","248826","245778","245763","248510","1556","CogMod 2015 Experiment","61","18028","61","yes","1024"
"1","1600","-150","15","100","100","295","295","white","no","xpyriment","legacy","legacy","0","uniform","1","1","z","0","0","0","0","0","61","NA","NA","61","61","0","61","61","61","61","0","11/27/15 14:25:49","Default description","no","mono","no","18","black","Ok","768","legacy","C:/Users/Andrija/CloudStation/Cognitive Modeling/subject-2820781.csv","xpyriment","Interactive Ising","3.0.3","0","z","NA","NA","z","310","NA","NA","310","legacy","experiment","2820781","odd","legacy","50206","NA","NA","NA","NA","252759","NA","NA","250810","252426","1556","252759","249293","249273","252426","1556","CogMod 2015 Experiment","62","18338","62","yes","1024"
"1","800","-150","15","100","100","295","295","white","no","xpyriment","legacy","legacy","0","uniform","1","1","z","0","0","0","0","0","62","NA","NA","62","62","0","62","62","62","62","0","11/27/15 14:25:49","Default description","no","mono","no","18","black","Ok","768","legacy","C:/Users/Andrija/CloudStation/Cognitive Modeling/subject-2820781.csv","xpyriment","Interactive Ising","3.0.3","0","z","NA","NA","z","272","NA","NA","272","legacy","experiment","2820781","odd","legacy","50206","NA","NA","NA","NA","255843","NA","NA","254743","255560","1556","255843","253229","253206","255560","1556","CogMod 2015 Experiment","63","18610","63","yes","1024"
"1","400","-150","15","100","100","295","295","white","no","xpyriment","legacy","legacy","0","uniform","1","1","z","0","0","0","0","0","63","NA","NA","63","63","0","63","63","63","63","0","11/27/15 14:25:49","Default description","no","mono","no","18","black","Ok","768","legacy","C:/Users/Andrija/CloudStation/Cognitive Modeling/subject-2820781.csv","xpyriment","Interactive Ising","3.0.3","0","z","NA","NA","z","317","NA","NA","317","legacy","experiment","2820781","odd","legacy","50206","NA","NA","NA","NA","258577","NA","NA","257826","258243","1556","258577","256310","256294","258243","1556","CogMod 2015 Experiment","64","18927","64","yes","1024"
"1","1600","150","15","100","100","296","296","white","no","xpyriment","legacy","legacy","0","uniform","1","1","m","0","0","0","0","0","64","NA","NA","64","64","0","64","64","64","64","0","11/27/15 14:25:49","Default description","no","mono","no","18","black","Ok","768","legacy","C:/Users/Andrija/CloudStation/Cognitive Modeling/subject-2820781.csv","xpyriment","Interactive Ising","3.0.3","0","m","NA","NA","m","344","NA","NA","344","legacy","experiment","2820781","odd","legacy","50206","NA","NA","NA","NA","262528","NA","NA","260543","262160","1556","262529","259028","259013","262160","1556","CogMod 2015 Experiment","65","19271","65","yes","1024"
"1","1600","-150","15","100","100","296","296","white","no","xpyriment","legacy","legacy","0","uniform","1","1","z","0","0","0","0","0","65","NA","NA","65","65","0","65","65","65","65","0","11/27/15 14:25:49","Default description","no","mono","no","18","black","Ok","768","legacy","C:/Users/Andrija/CloudStation/Cognitive Modeling/subject-2820781.csv","xpyriment","Interactive Ising","3.0.3","0","z","NA","NA","z","315","NA","NA","315","legacy","experiment","2820781","odd","legacy","50206","NA","NA","NA","NA","266443","NA","NA","264493","266110","1556","266443","262978","262962","266110","1556","CogMod 2015 Experiment","66","19586","66","yes","1024"
"1","1600","-150","15","100","100","296","296","white","no","xpyriment","legacy","legacy","0","uniform","1","1","z","0","0","0","0","0","66","NA","NA","66","66","0","66","66","66","66","0","11/27/15 14:25:49","Default description","no","mono","no","18","black","Ok","768","legacy","C:/Users/Andrija/CloudStation/Cognitive Modeling/subject-2820781.csv","xpyriment","Interactive Ising","3.0.3","0","z","NA","NA","z","269","NA","NA","269","legacy","experiment","2820781","odd","legacy","50206","NA","NA","NA","NA","270310","NA","NA","268410","270027","1556","270310","266894","266882","270027","1556","CogMod 2015 Experiment","67","19855","67","yes","1024"
"1","1600","150","15","100","100","297","297","white","no","xpyriment","legacy","legacy","0","uniform","1","1","m","0","0","0","0","0","67","NA","NA","67","67","0","67","67","67","67","0","11/27/15 14:25:49","Default description","no","mono","no","18","black","Ok","768","legacy","C:/Users/Andrija/CloudStation/Cognitive Modeling/subject-2820781.csv","xpyriment","Interactive Ising","3.0.3","0","m","NA","NA","m","347","NA","NA","347","legacy","experiment","2820781","odd","legacy","50206","NA","NA","NA","NA","274260","NA","NA","272277","273894","1556","274260","270761","270744","273894","1556","CogMod 2015 Experiment","68","20202","68","yes","1024"
"1","400","-150","15","100","100","297","297","white","no","xpyriment","legacy","legacy","0","uniform","1","1","z","0","0","0","0","0","68","NA","NA","68","68","0","68","68","68","68","0","11/27/15 14:25:49","Default description","no","mono","no","18","black","Ok","768","legacy","C:/Users/Andrija/CloudStation/Cognitive Modeling/subject-2820781.csv","xpyriment","Interactive Ising","3.0.3","0","z","NA","NA","z","308","NA","NA","308","legacy","experiment","2820781","odd","legacy","50206","NA","NA","NA","NA","276993","NA","NA","276260","276677","1556","276994","274745","274728","276677","1556","CogMod 2015 Experiment","69","20510","69","yes","1024"
"1","1600","150","15","100","100","296","296","white","no","xpyriment","legacy","legacy","0","uniform","1","1","m","0","0","0","0","0","69","NA","NA","69","69","0","69","69","69","69","0","11/27/15 14:25:49","Default description","no","mono","no","18","black","Ok","768","legacy","C:/Users/Andrija/CloudStation/Cognitive Modeling/subject-2820781.csv","xpyriment","Interactive Ising","3.0.3","0","m","NA","NA","m","272","NA","NA","272","legacy","experiment","2820781","odd","legacy","50206","NA","NA","NA","NA","280860","NA","NA","278960","280577","1556","280860","277445","277431","280577","1556","CogMod 2015 Experiment","70","20782","70","yes","1024"
"1","800","-150","15","100","100","296","296","white","no","xpyriment","legacy","legacy","0","uniform","1","1","z","0","0","0","0","0","70","NA","NA","70","70","0","70","70","70","70","0","11/27/15 14:25:49","Default description","no","mono","no","18","black","Ok","768","legacy","C:/Users/Andrija/CloudStation/Cognitive Modeling/subject-2820781.csv","xpyriment","Interactive Ising","3.0.3","0","z","NA","NA","z","285","NA","NA","285","legacy","experiment","2820781","odd","legacy","50206","NA","NA","NA","NA","283960","NA","NA","282843","283660","1556","283960","281329","281302","283660","1556","CogMod 2015 Experiment","71","21067","71","yes","1024"
"1","1600","150","15","100","100","296","296","white","no","xpyriment","legacy","legacy","0","uniform","1","1","m","0","0","0","0","0","71","NA","NA","71","71","0","71","71","71","71","0","11/27/15 14:25:49","Default description","no","mono","no","18","black","Ok","768","legacy","C:/Users/Andrija/CloudStation/Cognitive Modeling/subject-2820781.csv","xpyriment","Interactive Ising","3.0.3","0","m","NA","NA","m","273","NA","NA","273","legacy","experiment","2820781","odd","legacy","50206","NA","NA","NA","NA","287843","NA","NA","285944","287560","1556","287843","284428","284407","287560","1556","CogMod 2015 Experiment","72","21340","72","yes","1024"
"1","1600","-150","15","100","100","295","295","white","no","xpyriment","legacy","legacy","0","uniform","1","1","z","0","0","0","0","0","72","NA","NA","72","72","0","72","72","72","72","0","11/27/15 14:25:49","Default description","no","mono","no","18","black","Ok","768","legacy","C:/Users/Andrija/CloudStation/Cognitive Modeling/subject-2820781.csv","xpyriment","Interactive Ising","3.0.3","0","z","NA","NA","z","262","NA","NA","262","legacy","experiment","2820781","odd","legacy","50206","NA","NA","NA","NA","291710","NA","NA","289811","291427","1556","291710","288297","288283","291427","1556","CogMod 2015 Experiment","73","21602","73","yes","1024"
"1","400","-150","15","100","100","296","296","white","no","xpyriment","legacy","legacy","0","uniform","1","1","z","0","0","0","0","0","73","NA","NA","73","73","0","73","73","73","73","0","11/27/15 14:25:49","Default description","no","mono","no","18","black","Ok","768","legacy","C:/Users/Andrija/CloudStation/Cognitive Modeling/subject-2820781.csv","xpyriment","Interactive Ising","3.0.3","0","z","NA","NA","z","339","NA","NA","339","legacy","experiment","2820781","odd","legacy","50206","NA","NA","NA","NA","294444","NA","NA","293677","294094","1556","294444","292162","292150","294094","1556","CogMod 2015 Experiment","74","21941","74","yes","1024"
"1","1600","150","15","100","100","296","296","white","no","xpyriment","legacy","legacy","0","uniform","1","1","m","0","0","0","0","0","74","NA","NA","74","74","0","74","74","74","74","0","11/27/15 14:25:49","Default description","no","mono","no","18","black","Ok","768","legacy","C:/Users/Andrija/CloudStation/Cognitive Modeling/subject-2820781.csv","xpyriment","Interactive Ising","3.0.3","0","m","NA","NA","m","269","NA","NA","269","legacy","experiment","2820781","odd","legacy","50206","NA","NA","NA","NA","298310","NA","NA","296410","298028","1556","298311","294895","294878","298027","1556","CogMod 2015 Experiment","75","22210","75","yes","1024"
"1","1600","150","15","100","100","296","296","white","no","xpyriment","legacy","legacy","0","uniform","1","1","m","0","0","0","0","0","75","NA","NA","75","75","0","75","75","75","75","0","11/27/15 14:25:49","Default description","no","mono","no","18","black","Ok","768","legacy","C:/Users/Andrija/CloudStation/Cognitive Modeling/subject-2820781.csv","xpyriment","Interactive Ising","3.0.3","0","m","NA","NA","m","298","NA","NA","298","legacy","experiment","2820781","odd","legacy","50206","NA","NA","NA","NA","302227","NA","NA","300294","301911","1556","302227","298778","298762","301911","1556","CogMod 2015 Experiment","76","22508","76","yes","1024"
"1","800","-150","15","100","100","295","295","white","no","xpyriment","legacy","legacy","0","uniform","1","1","z","0","0","0","0","0","76","NA","NA","76","76","0","76","76","76","76","0","11/27/15 14:25:49","Default description","no","mono","no","18","black","Ok","768","legacy","C:/Users/Andrija/CloudStation/Cognitive Modeling/subject-2820781.csv","xpyriment","Interactive Ising","3.0.3","0","z","NA","NA","z","263","NA","NA","263","legacy","experiment","2820781","odd","legacy","50206","NA","NA","NA","NA","305294","NA","NA","304194","305011","1556","305294","302678","302666","305011","1556","CogMod 2015 Experiment","77","22771","77","yes","1024"
"1","800","-150","15","100","100","295","295","white","no","xpyriment","legacy","legacy","0","uniform","1","1","z","0","0","0","0","0","77","NA","NA","77","77","0","77","77","77","77","0","11/27/15 14:25:49","Default description","no","mono","no","18","black","Ok","768","legacy","C:/Users/Andrija/CloudStation/Cognitive Modeling/subject-2820781.csv","xpyriment","Interactive Ising","3.0.3","0","z","NA","NA","z","268","NA","NA","268","legacy","experiment","2820781","odd","legacy","50206","NA","NA","NA","NA","308361","NA","NA","307261","308078","1556","308361","305745","305734","308078","1556","CogMod 2015 Experiment","78","23039","78","yes","1024"
"1","1600","150","15","100","100","295","295","white","no","xpyriment","legacy","legacy","0","uniform","1","1","m","0","0","0","0","0","78","NA","NA","78","78","0","78","78","78","78","0","11/27/15 14:25:49","Default description","no","mono","no","18","black","Ok","768","legacy","C:/Users/Andrija/CloudStation/Cognitive Modeling/subject-2820781.csv","xpyriment","Interactive Ising","3.0.3","0","m","NA","NA","m","273","NA","NA","273","legacy","experiment","2820781","odd","legacy","50206","NA","NA","NA","NA","312244","NA","NA","310344","311961","1556","312244","308829","308815","311961","1556","CogMod 2015 Experiment","79","23312","79","yes","1024"
"1","400","-150","15","98.75","98.75","295","295","white","no","xpyriment","legacy","legacy","0","uniform","0","0","z","0","0","0","0","0","79","NA","NA","79","79","0","79","79","79","79","0","11/27/15 14:25:49","Default description","no","mono","no","18","black","Ok","768","legacy","C:/Users/Andrija/CloudStation/Cognitive Modeling/subject-2820781.csv","xpyriment","Interactive Ising","3.0.3","0","m","NA","NA","m","333","NA","NA","333","legacy","experiment","2820781","odd","legacy","50206","NA","NA","NA","NA","314994","NA","NA","314228","314645","1556","314994","312713","312692","314645","1556","CogMod 2015 Experiment","79","23645","80","yes","1024"
"1","1200","150","15","98.7654320988","98.7654320988","297","297","white","no","xpyriment","legacy","legacy","0","uniform","1","1","m","0","0","0","0","0","80","NA","NA","80","80","0","80","80","80","80","0","11/27/15 14:25:49","Default description","no","mono","no","18","black","Ok","768","legacy","C:/Users/Andrija/CloudStation/Cognitive Modeling/subject-2820781.csv","xpyriment","Interactive Ising","3.0.3","0","m","NA","NA","m","463","NA","NA","463","legacy","experiment","2820781","odd","legacy","50206","NA","NA","NA","NA","318678","NA","NA","316978","318195","1556","318678","315462","315446","318195","1556","CogMod 2015 Experiment","80","24108","81","yes","1024"
"1","1200","150","15","98.7804878049","98.7804878049","307","307","white","no","xpyriment","legacy","legacy","0","uniform","1","1","m","0","0","0","0","0","81","NA","NA","81","81","0","81","81","81","81","0","11/27/15 14:25:49","Default description","no","mono","no","18","black","Ok","768","legacy","C:/Users/Andrija/CloudStation/Cognitive Modeling/subject-2820781.csv","xpyriment","Interactive Ising","3.0.3","0","m","NA","NA","m","1146","NA","NA","1146","legacy","experiment","2820781","odd","legacy","50206","NA","NA","NA","NA","323094","NA","NA","320711","321928","1556","323094","319200","319184","321928","1556","CogMod 2015 Experiment","81","25254","82","yes","1024"
"1","400","-150","15","98.7951807229","98.7951807229","307","307","white","no","xpyriment","legacy","legacy","0","uniform","1","1","z","0","0","0","0","0","82","NA","NA","82","82","0","82","82","82","82","0","11/27/15 14:25:49","Default description","no","mono","no","18","black","Ok","768","legacy","C:/Users/Andrija/CloudStation/Cognitive Modeling/subject-2820781.csv","xpyriment","Interactive Ising","3.0.3","0","z","NA","NA","z","307","NA","NA","307","legacy","experiment","2820781","odd","legacy","50206","NA","NA","NA","NA","325811","NA","NA","325078","325495","1556","325811","323562","323552","325495","1556","CogMod 2015 Experiment","82","25561","83","yes","1024"
"1","400","150","15","98.8095238095","98.8095238095","308","308","white","no","xpyriment","legacy","legacy","0","uniform","1","1","m","0","0","0","0","0","83","NA","NA","83","83","0","83","83","83","83","0","11/27/15 14:25:49","Default description","no","mono","no","18","black","Ok","768","legacy","C:/Users/Andrija/CloudStation/Cognitive Modeling/subject-2820781.csv","xpyriment","Interactive Ising","3.0.3","0","m","NA","NA","m","343","NA","NA","343","legacy","experiment","2820781","odd","legacy","50206","NA","NA","NA","NA","328561","NA","NA","327778","328195","1556","328561","326264","326251","328195","1556","CogMod 2015 Experiment","83","25904","84","yes","1024"
"1","1600","150","15","98.8235294118","98.8235294118","308","308","white","no","xpyriment","legacy","legacy","0","uniform","1","1","m","0","0","0","0","0","84","NA","NA","84","84","0","84","84","84","84","0","11/27/15 14:25:49","Default description","no","mono","no","18","black","Ok","768","legacy","C:/Users/Andrija/CloudStation/Cognitive Modeling/subject-2820781.csv","xpyriment","Interactive Ising","3.0.3","0","m","NA","NA","m","337","NA","NA","337","legacy","experiment","2820781","odd","legacy","50206","NA","NA","NA","NA","332494","NA","NA","330528","332145","1556","332495","329012","328994","332145","1556","CogMod 2015 Experiment","84","26241","85","yes","1024"
"1","400","150","15","98.8372093023","98.8372093023","309","309","white","no","xpyriment","legacy","legacy","0","uniform","1","1","m","0","0","0","0","0","85","NA","NA","85","85","0","85","85","85","85","0","11/27/15 14:25:49","Default description","no","mono","no","18","black","Ok","768","legacy","C:/Users/Andrija/CloudStation/Cognitive Modeling/subject-2820781.csv","xpyriment","Interactive Ising","3.0.3","0","m","NA","NA","m","348","NA","NA","348","legacy","experiment","2820781","odd","legacy","50206","NA","NA","NA","NA","335245","NA","NA","334462","334878","1556","335245","332947","332934","334878","1556","CogMod 2015 Experiment","85","26589","86","yes","1024"
"1","800","150","15","98.8505747126","98.8505747126","309","309","white","no","xpyriment","legacy","legacy","0","uniform","1","1","m","0","0","0","0","0","86","NA","NA","86","86","0","86","86","86","86","0","11/27/15 14:25:49","Default description","no","mono","no","18","black","Ok","768","legacy","C:/Users/Andrija/CloudStation/Cognitive Modeling/subject-2820781.csv","xpyriment","Interactive Ising","3.0.3","0","m","NA","NA","m","334","NA","NA","334","legacy","experiment","2820781","odd","legacy","50206","NA","NA","NA","NA","338395","NA","NA","337228","338045","1556","338395","335713","335689","338045","1556","CogMod 2015 Experiment","86","26923","87","yes","1024"
"1","1200","150","15","98.8636363636","98.8636363636","309","309","white","no","xpyriment","legacy","legacy","0","uniform","1","1","m","0","0","0","0","0","87","NA","NA","87","87","0","87","87","87","87","0","11/27/15 14:25:49","Default description","no","mono","no","18","black","Ok","768","legacy","C:/Users/Andrija/CloudStation/Cognitive Modeling/subject-2820781.csv","xpyriment","Interactive Ising","3.0.3","0","m","NA","NA","m","296","NA","NA","296","legacy","experiment","2820781","odd","legacy","50206","NA","NA","NA","NA","341895","NA","NA","340362","341579","1556","341895","338847","338830","341578","1556","CogMod 2015 Experiment","87","27219","88","yes","1024"
"1","1200","-150","15","98.8764044944","98.8764044944","309","309","white","no","xpyriment","legacy","legacy","0","uniform","1","1","z","0","0","0","0","0","88","NA","NA","88","88","0","88","88","88","88","0","11/27/15 14:25:49","Default description","no","mono","no","18","black","Ok","768","legacy","C:/Users/Andrija/CloudStation/Cognitive Modeling/subject-2820781.csv","xpyriment","Interactive Ising","3.0.3","0","z","NA","NA","z","317","NA","NA","317","legacy","experiment","2820781","odd","legacy","50206","NA","NA","NA","NA","345412","NA","NA","343862","345078","1556","345412","342346","342334","345078","1556","CogMod 2015 Experiment","88","27536","89","yes","1024"
"1","400","-150","15","98.8888888889","98.8888888889","309","309","white","no","xpyriment","legacy","legacy","0","uniform","1","1","z","0","0","0","0","0","89","NA","NA","89","89","0","89","89","89","89","0","11/27/15 14:25:49","Default description","no","mono","no","18","black","Ok","768","legacy","C:/Users/Andrija/CloudStation/Cognitive Modeling/subject-2820781.csv","xpyriment","Interactive Ising","3.0.3","0","z","NA","NA","z","296","NA","NA","296","legacy","experiment","2820781","odd","legacy","50206","NA","NA","NA","NA","348111","NA","NA","347378","347795","1556","348112","345864","345847","347795","1556","CogMod 2015 Experiment","89","27832","90","yes","1024"
"1","800","-150","15","98.9010989011","98.9010989011","309","309","white","no","xpyriment","legacy","legacy","0","uniform","1","1","z","0","0","0","0","0","90","NA","NA","90","90","0","90","90","90","90","0","11/27/15 14:25:49","Default description","no","mono","no","18","black","Ok","768","legacy","C:/Users/Andrija/CloudStation/Cognitive Modeling/subject-2820781.csv","xpyriment","Interactive Ising","3.0.3","0","z","NA","NA","z","299","NA","NA","299","legacy","experiment","2820781","odd","legacy","50206","NA","NA","NA","NA","351229","NA","NA","350095","350912","1556","351229","348580","348560","350912","1556","CogMod 2015 Experiment","90","28131","91","yes","1024"
"1","1600","150","15","98.9130434783","98.9130434783","310","310","white","no","xpyriment","legacy","legacy","0","uniform","1","1","m","0","0","0","0","0","91","NA","NA","91","91","0","91","91","91","91","0","11/27/15 14:25:49","Default description","no","mono","no","18","black","Ok","768","legacy","C:/Users/Andrija/CloudStation/Cognitive Modeling/subject-2820781.csv","xpyriment","Interactive Ising","3.0.3","0","m","NA","NA","m","390","NA","NA","390","legacy","experiment","2820781","odd","legacy","50206","NA","NA","NA","NA","355229","NA","NA","353212","354829","1556","355229","351697","351670","354829","1556","CogMod 2015 Experiment","91","28521","92","yes","1024"
"1","800","150","15","98.9247311828","98.9247311828","310","310","white","no","xpyriment","legacy","legacy","0","uniform","1","1","m","0","0","0","0","0","92","NA","NA","92","92","0","92","92","92","92","0","11/27/15 14:25:49","Default description","no","mono","no","18","black","Ok","768","legacy","C:/Users/Andrija/CloudStation/Cognitive Modeling/subject-2820781.csv","xpyriment","Interactive Ising","3.0.3","0","m","NA","NA","m","382","NA","NA","382","legacy","experiment","2820781","odd","legacy","50206","NA","NA","NA","NA","358429","NA","NA","357212","358029","1556","358429","355697","355682","358029","1556","CogMod 2015 Experiment","92","28903","93","yes","1024"
"1","800","150","15","98.9361702128","98.9361702128","310","310","white","no","xpyriment","legacy","legacy","0","uniform","1","1","m","0","0","0","0","0","93","NA","NA","93","93","0","93","93","93","93","0","11/27/15 14:25:49","Default description","no","mono","no","18","black","Ok","768","legacy","C:/Users/Andrija/CloudStation/Cognitive Modeling/subject-2820781.csv","xpyriment","Interactive Ising","3.0.3","0","m","NA","NA","m","287","NA","NA","287","legacy","experiment","2820781","odd","legacy","50206","NA","NA","NA","NA","361512","NA","NA","360395","361212","1556","361512","358881","358864","361212","1556","CogMod 2015 Experiment","93","29190","94","yes","1024"
"1","1600","-150","15","98.9473684211","98.9473684211","311","311","white","no","xpyriment","legacy","legacy","0","uniform","1","1","z","0","0","0","0","0","94","NA","NA","94","94","0","94","94","94","94","0","11/27/15 14:25:49","Default description","no","mono","no","18","black","Ok","768","legacy","C:/Users/Andrija/CloudStation/Cognitive Modeling/subject-2820781.csv","xpyriment","Interactive Ising","3.0.3","0","z","NA","NA","z","387","NA","NA","387","legacy","experiment","2820781","odd","legacy","50206","NA","NA","NA","NA","365496","NA","NA","363479","365096","1556","365496","361964","361947","365096","1556","CogMod 2015 Experiment","94","29577","95","yes","1024"
"1","400","150","15","98.9583333333","98.9583333333","311","311","white","no","xpyriment","legacy","legacy","0","uniform","1","1","m","0","0","0","0","0","95","NA","NA","95","95","0","95","95","95","95","0","11/27/15 14:25:49","Default description","no","mono","no","18","black","Ok","768","legacy","C:/Users/Andrija/CloudStation/Cognitive Modeling/subject-2820781.csv","xpyriment","Interactive Ising","3.0.3","0","m","NA","NA","m","333","NA","NA","333","legacy","experiment","2820781","odd","legacy","50206","NA","NA","NA","NA","368229","NA","NA","367462","367879","1556","368229","365947","365932","367879","1556","CogMod 2015 Experiment","95","29910","96","yes","1024"
"1","1200","150","15","98.9690721649","98.9690721649","312","312","white","no","xpyriment","legacy","legacy","0","uniform","1","1","m","0","0","0","0","0","96","NA","NA","96","96","0","96","96","96","96","0","11/27/15 14:25:49","Default description","no","mono","no","18","black","Ok","768","legacy","C:/Users/Andrija/CloudStation/Cognitive Modeling/subject-2820781.csv","xpyriment","Interactive Ising","3.0.3","0","m","NA","NA","m","367","NA","NA","367","legacy","experiment","2820781","odd","legacy","50206","NA","NA","NA","NA","371796","NA","NA","370196","371413","1556","371796","368680","368666","371412","1556","CogMod 2015 Experiment","96","30277","97","yes","1024"
"1","800","150","15","98.9795918367","98.9795918367","311","311","white","no","xpyriment","legacy","legacy","0","uniform","1","1","m","0","0","0","0","0","97","NA","NA","97","97","0","97","97","97","97","0","11/27/15 14:25:49","Default description","no","mono","no","18","black","Ok","768","legacy","C:/Users/Andrija/CloudStation/Cognitive Modeling/subject-2820781.csv","xpyriment","Interactive Ising","3.0.3","0","m","NA","NA","m","280","NA","NA","280","legacy","experiment","2820781","odd","legacy","50206","NA","NA","NA","NA","374895","NA","NA","373779","374596","1556","374896","372265","372246","374596","1556","CogMod 2015 Experiment","97","30557","98","yes","1024"
"1","1200","-150","15","98.9898989899","98.9898989899","312","312","white","no","xpyriment","legacy","legacy","0","uniform","1","1","z","0","0","0","0","0","98","NA","NA","98","98","0","98","98","98","98","0","11/27/15 14:25:49","Default description","no","mono","no","18","black","Ok","768","legacy","C:/Users/Andrija/CloudStation/Cognitive Modeling/subject-2820781.csv","xpyriment","Interactive Ising","3.0.3","0","z","NA","NA","z","333","NA","NA","333","legacy","experiment","2820781","odd","legacy","50206","NA","NA","NA","NA","378429","NA","NA","376862","378079","1556","378429","375347","375329","378079","1556","CogMod 2015 Experiment","98","30890","99","yes","1024"
"1","800","150","15","99","99","312","312","white","no","xpyriment","legacy","legacy","0","uniform","1","1","m","0","0","0","0","0","99","NA","NA","99","99","0","99","99","99","99","0","11/27/15 14:25:49","Default description","no","mono","no","18","black","Ok","768","legacy","C:/Users/Andrija/CloudStation/Cognitive Modeling/subject-2820781.csv","xpyriment","Interactive Ising","3.0.3","0","m","NA","NA","m","311","NA","NA","311","legacy","experiment","2820781","odd","legacy","50206","NA","NA","NA","NA","381546","NA","NA","380396","381213","1556","381546","378880","378869","381213","1556","CogMod 2015 Experiment","99","31201","100","yes","1024"
"1","1200","-150","15","99.0099009901","99.0099009901","312","312","white","no","xpyriment","legacy","legacy","0","uniform","1","1","z","0","0","0","0","0","100","NA","NA","100","100","0","100","100","100","100","0","11/27/15 14:25:49","Default description","no","mono","no","18","black","Ok","768","legacy","C:/Users/Andrija/CloudStation/Cognitive Modeling/subject-2820781.csv","xpyriment","Interactive Ising","3.0.3","0","z","NA","NA","z","347","NA","NA","347","legacy","experiment","2820781","odd","legacy","50206","NA","NA","NA","NA","385096","NA","NA","383513","384729","1556","385096","381997","381979","384729","1556","CogMod 2015 Experiment","100","31548","101","yes","1024"
"1","800","150","15","99.0196078431","99.0196078431","312","312","white","no","xpyriment","legacy","legacy","0","uniform","1","1","m","0","0","0","0","0","101","NA","NA","101","101","0","101","101","101","101","0","11/27/15 14:25:49","Default description","no","mono","no","18","black","Ok","768","legacy","C:/Users/Andrija/CloudStation/Cognitive Modeling/subject-2820781.csv","xpyriment","Interactive Ising","3.0.3","0","m","NA","NA","m","340","NA","NA","340","legacy","experiment","2820781","odd","legacy","50206","NA","NA","NA","NA","388246","NA","NA","387079","387896","1556","388246","385564","385544","387896","1556","CogMod 2015 Experiment","101","31888","102","yes","1024"
"1","1200","-150","15","99.0291262136","99.0291262136","313","313","white","no","xpyriment","legacy","legacy","0","uniform","1","1","z","0","0","0","0","0","102","NA","NA","102","102","0","102","102","102","102","0","11/27/15 14:25:49","Default description","no","mono","no","18","black","Ok","768","legacy","C:/Users/Andrija/CloudStation/Cognitive Modeling/subject-2820781.csv","xpyriment","Interactive Ising","3.0.3","0","z","NA","NA","z","358","NA","NA","358","legacy","experiment","2820781","odd","legacy","50206","NA","NA","NA","NA","391813","NA","NA","390213","391430","1556","391813","388697","388681","391429","1556","CogMod 2015 Experiment","102","32246","103","yes","1024"
"1","1600","-150","15","99.0384615385","99.0384615385","313","313","white","no","xpyriment","legacy","legacy","0","uniform","1","1","z","0","0","0","0","0","103","NA","NA","103","103","0","103","103","103","103","0","11/27/15 14:25:49","Default description","no","mono","no","18","black","Ok","768","legacy","C:/Users/Andrija/CloudStation/Cognitive Modeling/subject-2820781.csv","xpyriment","Interactive Ising","3.0.3","0","z","NA","NA","z","328","NA","NA","328","legacy","experiment","2820781","odd","legacy","50206","NA","NA","NA","NA","395762","NA","NA","393796","395413","1556","395763","392280","392261","395413","1556","CogMod 2015 Experiment","103","32574","104","yes","1024"
"1","800","-150","15","99.0476190476","99.0476190476","313","313","white","no","xpyriment","legacy","legacy","0","uniform","1","1","z","0","0","0","0","0","104","NA","NA","104","104","0","104","104","104","104","0","11/27/15 14:25:49","Default description","no","mono","no","18","black","Ok","768","legacy","C:/Users/Andrija/CloudStation/Cognitive Modeling/subject-2820781.csv","xpyriment","Interactive Ising","3.0.3","0","z","NA","NA","z","328","NA","NA","328","legacy","experiment","2820781","odd","legacy","50206","NA","NA","NA","NA","398963","NA","NA","397797","398613","1556","398963","396285","396265","398613","1556","CogMod 2015 Experiment","104","32902","105","yes","1024"
"1","1200","-150","15","99.0566037736","99.0566037736","313","313","white","no","xpyriment","legacy","legacy","0","uniform","1","1","z","0","0","0","0","0","105","NA","NA","105","105","0","105","105","105","105","0","11/27/15 14:25:49","Default description","no","mono","no","18","black","Ok","768","legacy","C:/Users/Andrija/CloudStation/Cognitive Modeling/subject-2820781.csv","xpyriment","Interactive Ising","3.0.3","0","z","NA","NA","z","338","NA","NA","338","legacy","experiment","2820781","odd","legacy","50206","NA","NA","NA","NA","402496","NA","NA","400930","402147","1556","402496","399414","399395","402146","1556","CogMod 2015 Experiment","105","33240","106","yes","1024"
"1","400","150","15","99.0654205607","99.0654205607","313","313","white","no","xpyriment","legacy","legacy","0","uniform","1","1","m","0","0","0","0","0","106","NA","NA","106","106","0","106","106","106","106","0","11/27/15 14:25:49","Default description","no","mono","no","18","black","Ok","768","legacy","C:/Users/Andrija/CloudStation/Cognitive Modeling/subject-2820781.csv","xpyriment","Interactive Ising","3.0.3","0","m","NA","NA","m","349","NA","NA","349","legacy","experiment","2820781","odd","legacy","50206","NA","NA","NA","NA","405265","NA","NA","404480","404896","1556","405265","402964","402947","404896","1556","CogMod 2015 Experiment","106","33589","107","yes","1024"
"1","800","-150","15","99.0740740741","99.0740740741","314","314","white","no","xpyriment","legacy","legacy","0","uniform","1","1","z","0","0","0","0","0","107","NA","NA","107","107","0","107","107","107","107","0","11/27/15 14:25:49","Default description","no","mono","no","18","black","Ok","768","legacy","C:/Users/Andrija/CloudStation/Cognitive Modeling/subject-2820781.csv","xpyriment","Interactive Ising","3.0.3","0","z","NA","NA","z","351","NA","NA","351","legacy","experiment","2820781","odd","legacy","50206","NA","NA","NA","NA","408413","NA","NA","407230","408046","1556","408413","405713","405699","408046","1556","CogMod 2015 Experiment","107","33940","108","yes","1024"
"1","800","150","15","99.0825688073","99.0825688073","313","313","white","no","xpyriment","legacy","legacy","0","uniform","1","1","m","0","0","0","0","0","108","NA","NA","108","108","0","108","108","108","108","0","11/27/15 14:25:49","Default description","no","mono","no","18","black","Ok","768","legacy","C:/Users/Andrija/CloudStation/Cognitive Modeling/subject-2820781.csv","xpyriment","Interactive Ising","3.0.3","0","m","NA","NA","m","264","NA","NA","264","legacy","experiment","2820781","odd","legacy","50206","NA","NA","NA","NA","411481","NA","NA","410380","411197","1556","411481","408864","408850","411197","1556","CogMod 2015 Experiment","108","34204","109","yes","1024"
"1","1600","-150","15","99.0909090909","99.0909090909","313","313","white","no","xpyriment","legacy","legacy","0","uniform","1","1","z","0","0","0","0","0","109","NA","NA","109","109","0","109","109","109","109","0","11/27/15 14:25:49","Default description","no","mono","no","18","black","Ok","768","legacy","C:/Users/Andrija/CloudStation/Cognitive Modeling/subject-2820781.csv","xpyriment","Interactive Ising","3.0.3","0","z","NA","NA","z","310","NA","NA","310","legacy","experiment","2820781","odd","legacy","50206","NA","NA","NA","NA","415397","NA","NA","413447","415063","1556","415397","411931","411919","415063","1556","CogMod 2015 Experiment","109","34514","110","yes","1024"
"1","1600","150","15","99.0990990991","99.0990990991","314","314","white","no","xpyriment","legacy","legacy","0","uniform","1","1","m","0","0","0","0","0","110","NA","NA","110","110","0","110","110","110","110","0","11/27/15 14:25:49","Default description","no","mono","no","18","black","Ok","768","legacy","C:/Users/Andrija/CloudStation/Cognitive Modeling/subject-2820781.csv","xpyriment","Interactive Ising","3.0.3","0","m","NA","NA","m","433","NA","NA","433","legacy","experiment","2820781","odd","legacy","50206","NA","NA","NA","NA","419430","NA","NA","417364","418980","1556","419430","415849","415836","418980","1556","CogMod 2015 Experiment","110","34947","111","yes","1024"
"1","1600","-150","15","99.1071428571","99.1071428571","314","314","white","no","xpyriment","legacy","legacy","0","uniform","1","1","z","0","0","0","0","0","111","NA","NA","111","111","0","111","111","111","111","0","11/27/15 14:25:49","Default description","no","mono","no","18","black","Ok","768","legacy","C:/Users/Andrija/CloudStation/Cognitive Modeling/subject-2820781.csv","xpyriment","Interactive Ising","3.0.3","0","z","NA","NA","z","288","NA","NA","288","legacy","experiment","2820781","odd","legacy","50206","NA","NA","NA","NA","423330","NA","NA","421413","423030","1556","423330","419898","419874","423030","1556","CogMod 2015 Experiment","111","35235","112","yes","1024"
"1","800","150","15","99.1150442478","99.1150442478","314","314","white","no","xpyriment","legacy","legacy","0","uniform","1","1","m","0","0","0","0","0","112","NA","NA","112","112","0","112","112","112","112","0","11/27/15 14:25:49","Default description","no","mono","no","18","black","Ok","768","legacy","C:/Users/Andrija/CloudStation/Cognitive Modeling/subject-2820781.csv","xpyriment","Interactive Ising","3.0.3","0","m","NA","NA","m","315","NA","NA","315","legacy","experiment","2820781","odd","legacy","50206","NA","NA","NA","NA","426447","NA","NA","425297","426114","1556","426447","423782","423766","426114","1556","CogMod 2015 Experiment","112","35550","113","yes","1024"
"1","1200","-150","15","99.1228070175","99.1228070175","314","314","white","no","xpyriment","legacy","legacy","0","uniform","1","1","z","0","0","0","0","0","113","NA","NA","113","113","0","113","113","113","113","0","11/27/15 14:25:49","Default description","no","mono","no","18","black","Ok","768","legacy","C:/Users/Andrija/CloudStation/Cognitive Modeling/subject-2820781.csv","xpyriment","Interactive Ising","3.0.3","0","z","NA","NA","z","287","NA","NA","287","legacy","experiment","2820781","odd","legacy","50206","NA","NA","NA","NA","429930","NA","NA","428414","429631","1556","429930","426898","426879","429631","1556","CogMod 2015 Experiment","113","35837","114","yes","1024"
"1","1200","-150","15","99.1304347826","99.1304347826","314","314","white","no","xpyriment","legacy","legacy","0","uniform","1","1","z","0","0","0","0","0","114","NA","NA","114","114","0","114","114","114","114","0","11/27/15 14:25:49","Default description","no","mono","no","18","black","Ok","768","legacy","C:/Users/Andrija/CloudStation/Cognitive Modeling/subject-2820781.csv","xpyriment","Interactive Ising","3.0.3","0","z","NA","NA","z","371","NA","NA","371","legacy","experiment","2820781","odd","legacy","50206","NA","NA","NA","NA","433514","NA","NA","431914","433131","1556","433514","430399","430384","433130","1556","CogMod 2015 Experiment","114","36208","115","yes","1024"
"1","1200","-150","15","99.1379310345","99.1379310345","315","315","white","no","xpyriment","legacy","legacy","0","uniform","1","1","z","0","0","0","0","0","115","NA","NA","115","115","0","115","115","115","115","0","11/27/15 14:25:49","Default description","no","mono","no","18","black","Ok","768","legacy","C:/Users/Andrija/CloudStation/Cognitive Modeling/subject-2820781.csv","xpyriment","Interactive Ising","3.0.3","0","z","NA","NA","z","332","NA","NA","332","legacy","experiment","2820781","odd","legacy","50206","NA","NA","NA","NA","437064","NA","NA","435497","436714","1556","437064","433982","433958","436714","1556","CogMod 2015 Experiment","115","36540","116","yes","1024"
"1","800","150","15","99.1452991453","99.1452991453","315","315","white","no","xpyriment","legacy","legacy","0","uniform","1","1","m","0","0","0","0","0","116","NA","NA","116","116","0","116","116","116","116","0","11/27/15 14:25:49","Default description","no","mono","no","18","black","Ok","768","legacy","C:/Users/Andrija/CloudStation/Cognitive Modeling/subject-2820781.csv","xpyriment","Interactive Ising","3.0.3","0","m","NA","NA","m","351","NA","NA","351","legacy","experiment","2820781","odd","legacy","50206","NA","NA","NA","NA","440214","NA","NA","439030","439847","1556","440214","437516","437505","439847","1556","CogMod 2015 Experiment","116","36891","117","yes","1024"
"1","400","150","15","99.1525423729","99.1525423729","315","315","white","no","xpyriment","legacy","legacy","0","uniform","1","1","m","0","0","0","0","0","117","NA","NA","117","117","0","117","117","117","117","0","11/27/15 14:25:49","Default description","no","mono","no","18","black","Ok","768","legacy","C:/Users/Andrija/CloudStation/Cognitive Modeling/subject-2820781.csv","xpyriment","Interactive Ising","3.0.3","0","m","NA","NA","m","344","NA","NA","344","legacy","experiment","2820781","odd","legacy","50206","NA","NA","NA","NA","442964","NA","NA","442180","442598","1556","442964","440665","440652","442598","1556","CogMod 2015 Experiment","117","37235","118","yes","1024"
"1","400","-150","15","99.1596638655","99.1596638655","315","315","white","no","xpyriment","legacy","legacy","0","uniform","1","1","z","0","0","0","0","0","118","NA","NA","118","118","0","118","118","118","118","0","11/27/15 14:25:49","Default description","no","mono","no","18","black","Ok","768","legacy","C:/Users/Andrija/CloudStation/Cognitive Modeling/subject-2820781.csv","xpyriment","Interactive Ising","3.0.3","0","z","NA","NA","z","338","NA","NA","338","legacy","experiment","2820781","odd","legacy","50206","NA","NA","NA","NA","445697","NA","NA","444930","445348","1556","445697","443415","443398","445347","1556","CogMod 2015 Experiment","118","37573","119","yes","1024"
"1","1200","-150","15","99.1666666667","99.1666666667","315","315","white","no","xpyriment","legacy","legacy","0","uniform","1","1","z","0","0","0","0","0","119","NA","NA","119","119","0","119","119","119","119","0","11/27/15 14:25:49","Default description","no","mono","no","18","black","Ok","768","legacy","C:/Users/Andrija/CloudStation/Cognitive Modeling/subject-2820781.csv","xpyriment","Interactive Ising","3.0.3","0","z","NA","NA","z","318","NA","NA","318","legacy","experiment","2820781","odd","legacy","50206","NA","NA","NA","NA","449214","NA","NA","447664","448880","1556","449214","446148","446133","448880","1556","CogMod 2015 Experiment","119","37891","120","yes","1024"
"2","1200","-150","16","100","100","270","270","white","no","xpyriment","legacy","legacy","0","uniform","1","1","z","0","0","0","0","0","120","0","NA","120","120","0","120","120","120","120","0","11/27/15 14:25:49","Default description","no","mono","no","18","black","Ok","768","legacy","C:/Users/Andrija/CloudStation/Cognitive Modeling/subject-2820781.csv","xpyriment","Interactive Ising","3.0.3","0","z","m","NA","z","270","26782","NA","270","legacy","experiment","2820781","odd","legacy","50206","476480","NA","NA","NA","479948","449697","NA","478448","479665","1556","479948","476932","476918","479665","1556","CogMod 2015 Experiment","1","270","1","yes","1024"
"2","1200","-150","16","100","100","276","276","white","no","xpyriment","legacy","legacy","0","uniform","1","1","z","0","0","0","0","0","121","0","NA","121","121","0","121","121","121","121","0","11/27/15 14:25:49","Default description","no","mono","no","18","black","Ok","768","legacy","C:/Users/Andrija/CloudStation/Cognitive Modeling/subject-2820781.csv","xpyriment","Interactive Ising","3.0.3","0","z","m","NA","z","283","26782","NA","283","legacy","experiment","2820781","odd","legacy","50206","476480","NA","NA","NA","483448","449697","NA","481931","483148","1556","483448","480416","480390","483148","1556","CogMod 2015 Experiment","2","553","2","yes","1024"
"2","1200","150","16","100","100","280","280","white","no","xpyriment","legacy","legacy","0","uniform","1","1","m","0","0","0","0","0","122","0","NA","122","122","0","122","122","122","122","0","11/27/15 14:25:49","Default description","no","mono","no","18","black","Ok","768","legacy","C:/Users/Andrija/CloudStation/Cognitive Modeling/subject-2820781.csv","xpyriment","Interactive Ising","3.0.3","0","m","m","NA","m","287","26782","NA","287","legacy","experiment","2820781","odd","legacy","50206","476480","NA","NA","NA","486931","449697","NA","485415","486632","1556","486932","483900","483885","486631","1556","CogMod 2015 Experiment","3","840","3","yes","1024"
"2","1600","150","32","100","100","275","275","white","no","xpyriment","legacy","legacy","0","uniform","1","1","m","0","0","0","0","0","123","0","NA","123","123","0","123","123","123","123","0","11/27/15 14:25:49","Default description","no","mono","no","18","black","Ok","768","legacy","C:/Users/Andrija/CloudStation/Cognitive Modeling/subject-2820781.csv","xpyriment","Interactive Ising","3.0.3","0","m","m","NA","m","261","26782","NA","261","legacy","experiment","2820781","odd","legacy","50206","476480","NA","NA","NA","490798","449697","NA","488899","490515","1556","490798","487383","487368","490515","1556","CogMod 2015 Experiment","4","1101","4","yes","1024"
"2","1600","-150","32","100","100","284","284","white","no","xpyriment","legacy","legacy","0","uniform","1","1","z","0","0","0","0","0","124","0","NA","124","124","0","124","124","124","124","0","11/27/15 14:25:49","Default description","no","mono","no","18","black","Ok","768","legacy","C:/Users/Andrija/CloudStation/Cognitive Modeling/subject-2820781.csv","xpyriment","Interactive Ising","3.0.3","0","z","m","NA","z","321","26782","NA","321","legacy","experiment","2820781","odd","legacy","50206","476480","NA","NA","NA","494732","449697","NA","492782","494399","1556","494732","491266","491247","494399","1556","CogMod 2015 Experiment","5","1422","5","yes","1024"
"2","1600","-150","32","100","100","281","281","white","no","xpyriment","legacy","legacy","0","uniform","1","1","z","0","0","0","0","0","125","0","NA","125","125","0","125","125","125","125","0","11/27/15 14:25:49","Default description","no","mono","no","18","black","Ok","768","legacy","C:/Users/Andrija/CloudStation/Cognitive Modeling/subject-2820781.csv","xpyriment","Interactive Ising","3.0.3","0","z","m","NA","z","269","26782","NA","269","legacy","experiment","2820781","odd","legacy","50206","476480","NA","NA","NA","498615","449697","NA","496715","498331","1556","498615","495200","495184","498331","1556","CogMod 2015 Experiment","6","1691","6","yes","1024"
"2","1600","-150","32","100","100","288","288","white","no","xpyriment","legacy","legacy","0","uniform","1","1","z","0","0","0","0","0","126","0","NA","126","126","0","126","126","126","126","0","11/27/15 14:25:49","Default description","no","mono","no","18","black","Ok","768","legacy","C:/Users/Andrija/CloudStation/Cognitive Modeling/subject-2820781.csv","xpyriment","Interactive Ising","3.0.3","0","z","m","NA","z","326","26782","NA","326","legacy","experiment","2820781","odd","legacy","50206","476480","NA","NA","NA","502617","449697","NA","500649","502266","1556","502617","499135","499108","502265","1556","CogMod 2015 Experiment","7","2017","7","yes","1024"
"2","1600","150","32","100","100","287","287","white","no","xpyriment","legacy","legacy","0","uniform","1","1","m","0","0","0","0","0","127","0","NA","127","127","0","127","127","127","127","0","11/27/15 14:25:49","Default description","no","mono","no","18","black","Ok","768","legacy","C:/Users/Andrija/CloudStation/Cognitive Modeling/subject-2820781.csv","xpyriment","Interactive Ising","3.0.3","0","m","m","NA","m","280","26782","NA","280","legacy","experiment","2820781","odd","legacy","50206","476480","NA","NA","NA","506515","449697","NA","504599","506216","1556","506515","503083","503057","506215","1556","CogMod 2015 Experiment","8","2297","8","yes","1024"
"2","1200","-150","16","100","100","291","291","white","no","xpyriment","legacy","legacy","0","uniform","1","1","z","0","0","0","0","0","128","0","NA","128","128","0","128","128","128","128","0","11/27/15 14:25:49","Default description","no","mono","no","18","black","Ok","768","legacy","C:/Users/Andrija/CloudStation/Cognitive Modeling/subject-2820781.csv","xpyriment","Interactive Ising","3.0.3","0","z","m","NA","z","324","26782","NA","324","legacy","experiment","2820781","odd","legacy","50206","476480","NA","NA","NA","510066","449697","NA","508515","509732","1556","510066","507000","506974","509732","1556","CogMod 2015 Experiment","9","2621","9","yes","1024"
"2","800","-150","8","100","100","294","294","white","no","xpyriment","legacy","legacy","0","uniform","1","1","z","0","0","0","0","0","129","0","NA","129","129","0","129","129","129","129","0","11/27/15 14:25:49","Default description","no","mono","no","18","black","Ok","768","legacy","C:/Users/Andrija/CloudStation/Cognitive Modeling/subject-2820781.csv","xpyriment","Interactive Ising","3.0.3","0","z","m","NA","z","327","26782","NA","327","legacy","experiment","2820781","odd","legacy","50206","476480","NA","NA","NA","513199","449697","NA","512032","512849","1556","513199","510516","510501","512849","1556","CogMod 2015 Experiment","10","2948","10","yes","1024"
"2","1600","-150","32","100","100","296","296","white","no","xpyriment","legacy","legacy","0","uniform","1","1","z","0","0","0","0","0","130","0","NA","130","130","0","130","130","130","130","0","11/27/15 14:25:49","Default description","no","mono","no","18","black","Ok","768","legacy","C:/Users/Andrija/CloudStation/Cognitive Modeling/subject-2820781.csv","xpyriment","Interactive Ising","3.0.3","0","z","m","NA","z","313","26782","NA","313","legacy","experiment","2820781","odd","legacy","50206","476480","NA","NA","NA","517132","449697","NA","515182","516799","1556","517132","513667","513642","516799","1556","CogMod 2015 Experiment","11","3261","11","yes","1024"
"2","800","150","8","100","100","297","297","white","no","xpyriment","legacy","legacy","0","uniform","1","1","m","0","0","0","0","0","131","0","NA","131","131","0","131","131","131","131","0","11/27/15 14:25:49","Default description","no","mono","no","18","black","Ok","768","legacy","C:/Users/Andrija/CloudStation/Cognitive Modeling/subject-2820781.csv","xpyriment","Interactive Ising","3.0.3","0","m","m","NA","m","308","26782","NA","308","legacy","experiment","2820781","odd","legacy","50206","476480","NA","NA","NA","520249","449697","NA","519099","519916","1556","520249","517583","517572","519916","1556","CogMod 2015 Experiment","12","3569","12","yes","1024"
"2","1600","-150","32","100","100","296","296","white","no","xpyriment","legacy","legacy","0","uniform","1","1","z","0","0","0","0","0","132","0","NA","132","132","0","132","132","132","132","0","11/27/15 14:25:49","Default description","no","mono","no","18","black","Ok","768","legacy","C:/Users/Andrija/CloudStation/Cognitive Modeling/subject-2820781.csv","xpyriment","Interactive Ising","3.0.3","0","z","m","NA","z","280","26782","NA","280","legacy","experiment","2820781","odd","legacy","50206","476480","NA","NA","NA","524132","449697","NA","522215","523832","1556","524132","520700","520684","523832","1556","CogMod 2015 Experiment","13","3849","13","yes","1024"
"2","1200","150","16","100","100","295","295","white","no","xpyriment","legacy","legacy","0","uniform","1","1","m","0","0","0","0","0","133","0","NA","133","133","0","133","133","133","133","0","11/27/15 14:25:49","Default description","no","mono","no","18","black","Ok","768","legacy","C:/Users/Andrija/CloudStation/Cognitive Modeling/subject-2820781.csv","xpyriment","Interactive Ising","3.0.3","0","m","m","NA","m","293","26782","NA","293","legacy","experiment","2820781","odd","legacy","50206","476480","NA","NA","NA","527633","449697","NA","526099","527316","1556","527633","524584","524570","527316","1556","CogMod 2015 Experiment","14","4142","14","yes","1024"
"2","1600","150","32","100","100","296","296","white","no","xpyriment","legacy","legacy","0","uniform","1","1","m","0","0","0","0","0","134","0","NA","134","134","0","134","134","134","134","0","11/27/15 14:25:49","Default description","no","mono","no","18","black","Ok","768","legacy","C:/Users/Andrija/CloudStation/Cognitive Modeling/subject-2820781.csv","xpyriment","Interactive Ising","3.0.3","0","m","m","NA","m","312","26782","NA","312","legacy","experiment","2820781","odd","legacy","50206","476480","NA","NA","NA","531566","449697","NA","529616","531233","1556","531566","528100","528079","531233","1556","CogMod 2015 Experiment","15","4454","15","yes","1024"
"2","800","-150","8","100","100","297","297","white","no","xpyriment","legacy","legacy","0","uniform","1","1","z","0","0","0","0","0","135","0","NA","135","135","0","135","135","135","135","0","11/27/15 14:25:49","Default description","no","mono","no","18","black","Ok","768","legacy","C:/Users/Andrija/CloudStation/Cognitive Modeling/subject-2820781.csv","xpyriment","Interactive Ising","3.0.3","0","z","m","NA","z","299","26782","NA","299","legacy","experiment","2820781","odd","legacy","50206","476480","NA","NA","NA","534683","449697","NA","533549","534366","1556","534683","532034","532008","534366","1556","CogMod 2015 Experiment","16","4753","16","yes","1024"
"2","1600","-150","32","100","100","298","298","white","no","xpyriment","legacy","legacy","0","uniform","1","1","z","0","0","0","0","0","136","0","NA","136","136","0","136","136","136","136","0","11/27/15 14:25:49","Default description","no","mono","no","18","black","Ok","768","legacy","C:/Users/Andrija/CloudStation/Cognitive Modeling/subject-2820781.csv","xpyriment","Interactive Ising","3.0.3","0","z","m","NA","z","319","26782","NA","319","legacy","experiment","2820781","odd","legacy","50206","476480","NA","NA","NA","538599","449697","NA","536649","538266","1556","538599","535134","535122","538266","1556","CogMod 2015 Experiment","17","5072","17","yes","1024"
"2","1600","150","32","100","100","297","297","white","no","xpyriment","legacy","legacy","0","uniform","1","1","m","0","0","0","0","0","137","0","NA","137","137","0","137","137","137","137","0","11/27/15 14:25:49","Default description","no","mono","no","18","black","Ok","768","legacy","C:/Users/Andrija/CloudStation/Cognitive Modeling/subject-2820781.csv","xpyriment","Interactive Ising","3.0.3","0","m","m","NA","m","290","26782","NA","290","legacy","experiment","2820781","odd","legacy","50206","476480","NA","NA","NA","542500","449697","NA","540583","542199","1556","542500","539067","539055","542199","1556","CogMod 2015 Experiment","18","5362","18","yes","1024"
"2","400","150","4","100","100","303","303","white","no","xpyriment","legacy","legacy","0","uniform","1","1","m","0","0","0","0","0","138","0","NA","138","138","0","138","138","138","138","0","11/27/15 14:25:49","Default description","no","mono","no","18","black","Ok","768","legacy","C:/Users/Andrija/CloudStation/Cognitive Modeling/subject-2820781.csv","xpyriment","Interactive Ising","3.0.3","0","m","m","NA","m","398","26782","NA","398","legacy","experiment","2820781","odd","legacy","50206","476480","NA","NA","NA","545299","449697","NA","544466","544883","1556","545299","542951","542934","544883","1556","CogMod 2015 Experiment","19","5760","19","yes","1024"
"2","400","-150","4","100","100","303","303","white","no","xpyriment","legacy","legacy","0","uniform","1","1","z","0","0","0","0","0","139","0","NA","139","139","0","139","139","139","139","0","11/27/15 14:25:49","Default description","no","mono","no","18","black","Ok","768","legacy","C:/Users/Andrija/CloudStation/Cognitive Modeling/subject-2820781.csv","xpyriment","Interactive Ising","3.0.3","0","z","m","NA","z","309","26782","NA","309","legacy","experiment","2820781","odd","legacy","50206","476480","NA","NA","NA","548033","449697","NA","547283","547700","1556","548033","545767","545747","547700","1556","CogMod 2015 Experiment","20","6069","20","yes","1024"
"2","1600","150","32","100","100","303","303","white","no","xpyriment","legacy","legacy","0","uniform","1","1","m","0","0","0","0","0","140","0","NA","140","140","0","140","140","140","140","0","11/27/15 14:25:49","Default description","no","mono","no","18","black","Ok","768","legacy","C:/Users/Andrija/CloudStation/Cognitive Modeling/subject-2820781.csv","xpyriment","Interactive Ising","3.0.3","0","m","m","NA","m","296","26782","NA","296","legacy","experiment","2820781","odd","legacy","50206","476480","NA","NA","NA","551949","449697","NA","550016","551633","1556","551949","548501","548478","551633","1556","CogMod 2015 Experiment","21","6365","21","yes","1024"
"2","1600","150","32","100","100","303","303","white","no","xpyriment","legacy","legacy","0","uniform","1","1","m","0","0","0","0","0","141","0","NA","141","141","0","141","141","141","141","0","11/27/15 14:25:49","Default description","no","mono","no","18","black","Ok","768","legacy","C:/Users/Andrija/CloudStation/Cognitive Modeling/subject-2820781.csv","xpyriment","Interactive Ising","3.0.3","0","m","m","NA","m","308","26782","NA","308","legacy","experiment","2820781","odd","legacy","50206","476480","NA","NA","NA","555866","449697","NA","553933","555550","1556","555866","552417","552395","555550","1556","CogMod 2015 Experiment","22","6673","22","yes","1024"
"2","1600","150","32","100","100","304","304","white","no","xpyriment","legacy","legacy","0","uniform","1","1","m","0","0","0","0","0","142","0","NA","142","142","0","142","142","142","142","0","11/27/15 14:25:49","Default description","no","mono","no","18","black","Ok","768","legacy","C:/Users/Andrija/CloudStation/Cognitive Modeling/subject-2820781.csv","xpyriment","Interactive Ising","3.0.3","0","m","m","NA","m","319","26782","NA","319","legacy","experiment","2820781","odd","legacy","50206","476480","NA","NA","NA","559817","449697","NA","557867","559483","1556","559817","556350","556325","559483","1556","CogMod 2015 Experiment","23","6992","23","yes","1024"
"2","1600","150","32","100","100","303","303","white","no","xpyriment","legacy","legacy","0","uniform","1","1","m","0","0","0","0","0","143","0","NA","143","143","0","143","143","143","143","0","11/27/15 14:25:49","Default description","no","mono","no","18","black","Ok","768","legacy","C:/Users/Andrija/CloudStation/Cognitive Modeling/subject-2820781.csv","xpyriment","Interactive Ising","3.0.3","0","m","m","NA","m","281","26782","NA","281","legacy","experiment","2820781","odd","legacy","50206","476480","NA","NA","NA","563717","449697","NA","561800","563417","1556","563717","560285","560264","563417","1556","CogMod 2015 Experiment","24","7273","24","yes","1024"
"2","1600","150","32","100","100","304","304","white","no","xpyriment","legacy","legacy","0","uniform","1","1","m","0","0","0","0","0","144","0","NA","144","144","0","144","144","144","144","0","11/27/15 14:25:49","Default description","no","mono","no","18","black","Ok","768","legacy","C:/Users/Andrija/CloudStation/Cognitive Modeling/subject-2820781.csv","xpyriment","Interactive Ising","3.0.3","0","m","m","NA","m","333","26782","NA","333","legacy","experiment","2820781","odd","legacy","50206","476480","NA","NA","NA","567650","449697","NA","565683","567301","1556","567650","564168","564154","567300","1556","CogMod 2015 Experiment","25","7606","25","yes","1024"
"2","1600","150","32","100","100","303","303","white","no","xpyriment","legacy","legacy","0","uniform","1","1","m","0","0","0","0","0","145","0","NA","145","145","0","145","145","145","145","0","11/27/15 14:25:49","Default description","no","mono","no","18","black","Ok","768","legacy","C:/Users/Andrija/CloudStation/Cognitive Modeling/subject-2820781.csv","xpyriment","Interactive Ising","3.0.3","0","m","m","NA","m","279","26782","NA","279","legacy","experiment","2820781","odd","legacy","50206","476480","NA","NA","NA","571550","449697","NA","569634","571251","1556","571550","568118","568096","571250","1556","CogMod 2015 Experiment","26","7885","26","yes","1024"
"2","800","150","8","100","100","308","308","white","no","xpyriment","legacy","legacy","0","uniform","1","1","m","0","0","0","0","0","146","0","NA","146","146","0","146","146","146","146","0","11/27/15 14:25:49","Default description","no","mono","no","18","black","Ok","768","legacy","C:/Users/Andrija/CloudStation/Cognitive Modeling/subject-2820781.csv","xpyriment","Interactive Ising","3.0.3","0","m","m","NA","m","436","26782","NA","436","legacy","experiment","2820781","odd","legacy","50206","476480","NA","NA","NA","574800","449697","NA","573534","574350","1556","574800","572018","571996","574350","1556","CogMod 2015 Experiment","27","8321","27","yes","1024"
"2","1600","-150","32","100","100","309","309","white","no","xpyriment","legacy","legacy","0","uniform","1","1","z","0","0","0","0","0","147","0","NA","147","147","0","147","147","147","147","0","11/27/15 14:25:49","Default description","no","mono","no","18","black","Ok","768","legacy","C:/Users/Andrija/CloudStation/Cognitive Modeling/subject-2820781.csv","xpyriment","Interactive Ising","3.0.3","0","z","m","NA","z","337","26782","NA","337","legacy","experiment","2820781","odd","legacy","50206","476480","NA","NA","NA","578750","449697","NA","576784","578401","1556","578750","575269","575256","578401","1556","CogMod 2015 Experiment","28","8658","28","yes","1024"
"2","1600","-150","32","100","100","308","308","white","no","xpyriment","legacy","legacy","0","uniform","1","1","z","0","0","0","0","0","148","0","NA","148","148","0","148","148","148","148","0","11/27/15 14:25:49","Default description","no","mono","no","18","black","Ok","768","legacy","C:/Users/Andrija/CloudStation/Cognitive Modeling/subject-2820781.csv","xpyriment","Interactive Ising","3.0.3","0","z","m","NA","z","275","26782","NA","275","legacy","experiment","2820781","odd","legacy","50206","476480","NA","NA","NA","582650","449697","NA","580734","582351","1556","582650","579218","579191","582351","1556","CogMod 2015 Experiment","29","8933","29","yes","1024"
