"Block","Foreperiod","Location","NumRep","acc","accuracy","average_response_time","avg_rt","background","bidi","canvas_backend","clock_backend","color_backend","compensation","coordinates","correct","correct_GetResponse","correct_response","count_Block_1","count_Block_2","count_Block_3","count_Block_4","count_Block_5","count_ClearScreen","count_Feedback","count_Feedback_Final","count_Fixation","count_GetResponse","count_Instructions1","count_LogData","count_PreTrialWait","count_SingleTrial","count_Stimulus","count_experiment","datetime","description","font_bold","font_family","font_italic","font_size","foreground","form_response","height","keyboard_backend","logfile","mouse_backend","opensesame_codename","opensesame_version","repeat_cycle","response","response_Feedback","response_Feedback_Final","response_GetResponse","response_time","response_time_Feedback","response_time_Feedback_Final","response_time_GetResponse","sampler_backend","start","subject_nr","subject_parity","synth_backend","time_Block_1","time_Block_2","time_Block_3","time_Block_4","time_Block_5","time_ClearScreen","time_Feedback","time_Feedback_Final","time_Fixation","time_GetResponse","time_Instructions1","time_LogData","time_PreTrialWait","time_SingleTrial","time_Stimulus","time_experiment","title","total_correct","total_response_time","total_responses","uniform_coordinates","width"
"1","1600","-150","15","100","100","450","450","white","no","xpyriment","legacy","legacy","0","uniform","1","1","z","0","0","0","0","0","0","NA","NA","0","0","0","0","0","0","0","0","11/26/15 09:32:00","Default description","no","mono","no","18","black","Ok","768","legacy","G:/Kunstmatige Intelligentie/Master/Jaar1/Cognitive Modeling - Basic Principles and Methods/Experiment/subject-2167018.csv","xpyriment","Interactive Ising","3.0.2","0","z","NA","NA","z","450","NA","NA","450","legacy","experiment","2167018","even","legacy","51080","NA","NA","NA","NA","55671","NA","NA","53617","55219","3270","55671","52109","52076","55219","3270","CogMod 2015 Experiment","1","450","1","yes","1024"
"1","1600","-150","15","100","100","368","368","white","no","xpyriment","legacy","legacy","0","uniform","1","1","z","0","0","0","0","0","1","NA","NA","1","1","0","1","1","1","1","0","11/26/15 09:32:00","Default description","no","mono","no","18","black","Ok","768","legacy","G:/Kunstmatige Intelligentie/Master/Jaar1/Cognitive Modeling - Basic Principles and Methods/Experiment/subject-2167018.csv","xpyriment","Interactive Ising","3.0.2","0","z","NA","NA","z","287","NA","NA","287","legacy","experiment","2167018","even","legacy","51080","NA","NA","NA","NA","60036","NA","NA","58145","59747","3270","60036","56635","56597","59746","3270","CogMod 2015 Experiment","2","737","2","yes","1024"
"1","800","150","15","100","100","354","354","white","no","xpyriment","legacy","legacy","0","uniform","1","1","m","0","0","0","0","0","2","NA","NA","2","2","0","2","2","2","2","0","11/26/15 09:32:00","Default description","no","mono","no","18","black","Ok","768","legacy","G:/Kunstmatige Intelligentie/Master/Jaar1/Cognitive Modeling - Basic Principles and Methods/Experiment/subject-2167018.csv","xpyriment","Interactive Ising","3.0.2","0","m","NA","NA","m","325","NA","NA","325","legacy","experiment","2167018","even","legacy","51080","NA","NA","NA","NA","63586","NA","NA","62457","63259","3270","63586","60948","60914","63258","3270","CogMod 2015 Experiment","3","1062","3","yes","1024"
"1","400","-150","15","100","100","341","341","white","no","xpyriment","legacy","legacy","0","uniform","1","1","z","0","0","0","0","0","3","NA","NA","3","3","0","3","3","3","3","0","11/26/15 09:32:00","Default description","no","mono","no","18","black","Ok","768","legacy","G:/Kunstmatige Intelligentie/Master/Jaar1/Cognitive Modeling - Basic Principles and Methods/Experiment/subject-2167018.csv","xpyriment","Interactive Ising","3.0.2","0","z","NA","NA","z","303","NA","NA","303","legacy","experiment","2167018","even","legacy","51080","NA","NA","NA","NA","66702","NA","NA","65995","66397","3270","66702","64485","64452","66397","3270","CogMod 2015 Experiment","4","1365","4","yes","1024"
"1","1600","-150","15","100","100","340","340","white","no","xpyriment","legacy","legacy","0","uniform","1","1","z","0","0","0","0","0","4","NA","NA","4","4","0","4","4","4","4","0","11/26/15 09:32:00","Default description","no","mono","no","18","black","Ok","768","legacy","G:/Kunstmatige Intelligentie/Master/Jaar1/Cognitive Modeling - Basic Principles and Methods/Experiment/subject-2167018.csv","xpyriment","Interactive Ising","3.0.2","0","z","NA","NA","z","338","NA","NA","338","legacy","experiment","2167018","even","legacy","51080","NA","NA","NA","NA","71125","NA","NA","69182","70784","3270","71125","67673","67640","70784","3270","CogMod 2015 Experiment","5","1703","5","yes","1024"
"1","1200","150","15","100","100","340","340","white","no","xpyriment","legacy","legacy","0","uniform","1","1","m","0","0","0","0","0","5","NA","NA","5","5","0","5","5","5","5","0","11/26/15 09:32:00","Default description","no","mono","no","18","black","Ok","768","legacy","G:/Kunstmatige Intelligentie/Master/Jaar1/Cognitive Modeling - Basic Principles and Methods/Experiment/subject-2167018.csv","xpyriment","Interactive Ising","3.0.2","0","m","NA","NA","m","337","NA","NA","337","legacy","experiment","2167018","even","legacy","51080","NA","NA","NA","NA","75107","NA","NA","73565","74767","3270","75107","72055","72012","74766","3270","CogMod 2015 Experiment","6","2040","6","yes","1024"
"1","1200","150","15","100","100","329","329","white","no","xpyriment","legacy","legacy","0","uniform","1","1","m","0","0","0","0","0","6","NA","NA","6","6","0","6","6","6","6","0","11/26/15 09:32:00","Default description","no","mono","no","18","black","Ok","768","legacy","G:/Kunstmatige Intelligentie/Master/Jaar1/Cognitive Modeling - Basic Principles and Methods/Experiment/subject-2167018.csv","xpyriment","Interactive Ising","3.0.2","0","m","NA","NA","m","266","NA","NA","266","legacy","experiment","2167018","even","legacy","51080","NA","NA","NA","NA","79025","NA","NA","77554","78757","3270","79025","76045","76006","78757","3270","CogMod 2015 Experiment","7","2306","7","yes","1024"
"1","1600","150","15","100","100","325","325","white","no","xpyriment","legacy","legacy","0","uniform","1","1","m","0","0","0","0","0","7","NA","NA","7","7","0","7","7","7","7","0","11/26/15 09:32:00","Default description","no","mono","no","18","black","Ok","768","legacy","G:/Kunstmatige Intelligentie/Master/Jaar1/Cognitive Modeling - Basic Principles and Methods/Experiment/subject-2167018.csv","xpyriment","Interactive Ising","3.0.2","0","m","NA","NA","m","299","NA","NA","299","legacy","experiment","2167018","even","legacy","51080","NA","NA","NA","NA","83352","NA","NA","81449","83051","3270","83352","79939","79909","83051","3270","CogMod 2015 Experiment","8","2605","8","yes","1024"
"1","1600","-150","15","100","100","318","318","white","no","xpyriment","legacy","legacy","0","uniform","1","1","z","0","0","0","0","0","8","NA","NA","8","8","0","8","8","8","8","0","11/26/15 09:32:00","Default description","no","mono","no","18","black","Ok","768","legacy","G:/Kunstmatige Intelligentie/Master/Jaar1/Cognitive Modeling - Basic Principles and Methods/Experiment/subject-2167018.csv","xpyriment","Interactive Ising","3.0.2","0","z","NA","NA","z","263","NA","NA","263","legacy","experiment","2167018","even","legacy","51080","NA","NA","NA","NA","87633","NA","NA","85764","87367","3270","87633","84255","84214","87367","3270","CogMod 2015 Experiment","9","2868","9","yes","1024"
"1","800","150","15","100","100","322","322","white","no","xpyriment","legacy","legacy","0","uniform","1","1","m","0","0","0","0","0","9","NA","NA","9","9","0","9","9","9","9","0","11/26/15 09:32:00","Default description","no","mono","no","18","black","Ok","768","legacy","G:/Kunstmatige Intelligentie/Master/Jaar1/Cognitive Modeling - Basic Principles and Methods/Experiment/subject-2167018.csv","xpyriment","Interactive Ising","3.0.2","0","m","NA","NA","m","357","NA","NA","357","legacy","experiment","2167018","even","legacy","51080","NA","NA","NA","NA","91197","NA","NA","90035","90837","3270","91197","88525","88494","90837","3270","CogMod 2015 Experiment","10","3225","10","yes","1024"
"1","1600","150","15","100","100","320","320","white","no","xpyriment","legacy","legacy","0","uniform","1","1","m","0","0","0","0","0","10","NA","NA","10","10","0","10","10","10","10","0","11/26/15 09:32:00","Default description","no","mono","no","18","black","Ok","768","legacy","G:/Kunstmatige Intelligentie/Master/Jaar1/Cognitive Modeling - Basic Principles and Methods/Experiment/subject-2167018.csv","xpyriment","Interactive Ising","3.0.2","0","m","NA","NA","m","300","NA","NA","300","legacy","experiment","2167018","even","legacy","51080","NA","NA","NA","NA","95592","NA","NA","93687","95289","3270","95592","92178","92136","95289","3270","CogMod 2015 Experiment","11","3525","11","yes","1024"
"1","800","-150","15","100","100","320","320","white","no","xpyriment","legacy","legacy","0","uniform","1","1","z","0","0","0","0","0","11","NA","NA","11","11","0","11","11","11","11","0","11/26/15 09:32:00","Default description","no","mono","no","18","black","Ok","768","legacy","G:/Kunstmatige Intelligentie/Master/Jaar1/Cognitive Modeling - Basic Principles and Methods/Experiment/subject-2167018.csv","xpyriment","Interactive Ising","3.0.2","0","z","NA","NA","z","322","NA","NA","322","legacy","experiment","2167018","even","legacy","51080","NA","NA","NA","NA","99216","NA","NA","98090","98892","3270","99216","96581","96550","98892","3270","CogMod 2015 Experiment","12","3847","12","yes","1024"
"1","1200","-150","15","100","100","316","316","white","no","xpyriment","legacy","legacy","0","uniform","1","1","z","0","0","0","0","0","12","NA","NA","12","12","0","12","12","12","12","0","11/26/15 09:32:00","Default description","no","mono","no","18","black","Ok","768","legacy","G:/Kunstmatige Intelligentie/Master/Jaar1/Cognitive Modeling - Basic Principles and Methods/Experiment/subject-2167018.csv","xpyriment","Interactive Ising","3.0.2","0","z","NA","NA","z","268","NA","NA","268","legacy","experiment","2167018","even","legacy","51080","NA","NA","NA","NA","103155","NA","NA","101682","102884","3270","103155","100173","100122","102883","3270","CogMod 2015 Experiment","13","4115","13","yes","1024"
"1","400","-150","15","100","100","319","319","white","no","xpyriment","legacy","legacy","0","uniform","1","1","z","0","0","0","0","0","13","NA","NA","13","13","0","13","13","13","13","0","11/26/15 09:32:00","Default description","no","mono","no","18","black","Ok","768","legacy","G:/Kunstmatige Intelligentie/Master/Jaar1/Cognitive Modeling - Basic Principles and Methods/Experiment/subject-2167018.csv","xpyriment","Interactive Ising","3.0.2","0","z","NA","NA","z","359","NA","NA","359","legacy","experiment","2167018","even","legacy","51080","NA","NA","NA","NA","106378","NA","NA","105615","106017","3270","106378","104112","104057","106017","3270","CogMod 2015 Experiment","14","4474","14","yes","1024"
"1","400","-150","15","100","100","318","318","white","no","xpyriment","legacy","legacy","0","uniform","1","1","z","0","0","0","0","0","14","NA","NA","14","14","0","14","14","14","14","0","11/26/15 09:32:00","Default description","no","mono","no","18","black","Ok","768","legacy","G:/Kunstmatige Intelligentie/Master/Jaar1/Cognitive Modeling - Basic Principles and Methods/Experiment/subject-2167018.csv","xpyriment","Interactive Ising","3.0.2","0","z","NA","NA","z","307","NA","NA","307","legacy","experiment","2167018","even","legacy","51080","NA","NA","NA","NA","109462","NA","NA","108750","109152","3270","109462","107246","107226","109152","3270","CogMod 2015 Experiment","15","4781","15","yes","1024"
"1","1600","150","15","100","100","318","318","white","no","xpyriment","legacy","legacy","0","uniform","1","1","m","0","0","0","0","0","15","NA","NA","15","15","0","15","15","15","15","0","11/26/15 09:32:00","Default description","no","mono","no","18","black","Ok","768","legacy","G:/Kunstmatige Intelligentie/Master/Jaar1/Cognitive Modeling - Basic Principles and Methods/Experiment/subject-2167018.csv","xpyriment","Interactive Ising","3.0.2","0","m","NA","NA","m","310","NA","NA","310","legacy","experiment","2167018","even","legacy","51080","NA","NA","NA","NA","113818","NA","NA","111898","113500","3270","113818","110388","110362","113500","3270","CogMod 2015 Experiment","16","5091","16","yes","1024"
"1","800","150","15","100","100","319","319","white","no","xpyriment","legacy","legacy","0","uniform","1","1","m","0","0","0","0","0","16","NA","NA","16","16","0","16","16","16","16","0","11/26/15 09:32:00","Default description","no","mono","no","18","black","Ok","768","legacy","G:/Kunstmatige Intelligentie/Master/Jaar1/Cognitive Modeling - Basic Principles and Methods/Experiment/subject-2167018.csv","xpyriment","Interactive Ising","3.0.2","0","m","NA","NA","m","333","NA","NA","333","legacy","experiment","2167018","even","legacy","51080","NA","NA","NA","NA","117399","NA","NA","116261","117063","3270","117399","114759","114726","117063","3270","CogMod 2015 Experiment","17","5424","17","yes","1024"
"1","1200","150","15","100","100","317","317","white","no","xpyriment","legacy","legacy","0","uniform","1","1","m","0","0","0","0","0","17","NA","NA","17","17","0","17","17","17","17","0","11/26/15 09:32:00","Default description","no","mono","no","18","black","Ok","768","legacy","G:/Kunstmatige Intelligentie/Master/Jaar1/Cognitive Modeling - Basic Principles and Methods/Experiment/subject-2167018.csv","xpyriment","Interactive Ising","3.0.2","0","m","NA","NA","m","283","NA","NA","283","legacy","experiment","2167018","even","legacy","51080","NA","NA","NA","NA","121311","NA","NA","119824","121026","3270","121311","118314","118282","121026","3270","CogMod 2015 Experiment","18","5707","18","yes","1024"
"1","800","150","15","100","100","316","316","white","no","xpyriment","legacy","legacy","0","uniform","1","1","m","0","0","0","0","0","18","NA","NA","18","18","0","18","18","18","18","0","11/26/15 09:32:00","Default description","no","mono","no","18","black","Ok","768","legacy","G:/Kunstmatige Intelligentie/Master/Jaar1/Cognitive Modeling - Basic Principles and Methods/Experiment/subject-2167018.csv","xpyriment","Interactive Ising","3.0.2","0","m","NA","NA","m","309","NA","NA","309","legacy","experiment","2167018","even","legacy","51080","NA","NA","NA","NA","124844","NA","NA","123730","124533","3270","124844","122222","122191","124533","3270","CogMod 2015 Experiment","19","6016","19","yes","1024"
"1","1200","-150","15","100","100","313","313","white","no","xpyriment","legacy","legacy","0","uniform","1","1","z","0","0","0","0","0","19","NA","NA","19","19","0","19","19","19","19","0","11/26/15 09:32:00","Default description","no","mono","no","18","black","Ok","768","legacy","G:/Kunstmatige Intelligentie/Master/Jaar1/Cognitive Modeling - Basic Principles and Methods/Experiment/subject-2167018.csv","xpyriment","Interactive Ising","3.0.2","0","z","NA","NA","z","261","NA","NA","261","legacy","experiment","2167018","even","legacy","51080","NA","NA","NA","NA","128731","NA","NA","127266","128468","3270","128731","125763","125730","128468","3270","CogMod 2015 Experiment","20","6277","20","yes","1024"
"1","1600","150","15","100","100","312","312","white","no","xpyriment","legacy","legacy","0","uniform","1","1","m","0","0","0","0","0","20","NA","NA","20","20","0","20","20","20","20","0","11/26/15 09:32:00","Default description","no","mono","no","18","black","Ok","768","legacy","G:/Kunstmatige Intelligentie/Master/Jaar1/Cognitive Modeling - Basic Principles and Methods/Experiment/subject-2167018.csv","xpyriment","Interactive Ising","3.0.2","0","m","NA","NA","m","281","NA","NA","281","legacy","experiment","2167018","even","legacy","51080","NA","NA","NA","NA","133041","NA","NA","131156","132758","3270","133041","129647","129627","132758","3270","CogMod 2015 Experiment","21","6558","21","yes","1024"
"1","800","150","15","100","100","311","311","white","no","xpyriment","legacy","legacy","0","uniform","1","1","m","0","0","0","0","0","21","NA","NA","21","21","0","21","21","21","21","0","11/26/15 09:32:00","Default description","no","mono","no","18","black","Ok","768","legacy","G:/Kunstmatige Intelligentie/Master/Jaar1/Cognitive Modeling - Basic Principles and Methods/Experiment/subject-2167018.csv","xpyriment","Interactive Ising","3.0.2","0","m","NA","NA","m","297","NA","NA","297","legacy","experiment","2167018","even","legacy","51080","NA","NA","NA","NA","136588","NA","NA","135486","136288","3270","136588","133980","133958","136288","3270","CogMod 2015 Experiment","22","6855","22","yes","1024"
"1","400","-150","15","100","100","311","311","white","no","xpyriment","legacy","legacy","0","uniform","1","1","z","0","0","0","0","0","22","NA","NA","22","22","0","22","22","22","22","0","11/26/15 09:32:00","Default description","no","mono","no","18","black","Ok","768","legacy","G:/Kunstmatige Intelligentie/Master/Jaar1/Cognitive Modeling - Basic Principles and Methods/Experiment/subject-2167018.csv","xpyriment","Interactive Ising","3.0.2","0","z","NA","NA","z","311","NA","NA","311","legacy","experiment","2167018","even","legacy","51080","NA","NA","NA","NA","139741","NA","NA","139025","139427","3270","139741","137523","137502","139427","3270","CogMod 2015 Experiment","23","7166","23","yes","1024"
"1","1600","150","15","100","100","311","311","white","no","xpyriment","legacy","legacy","0","uniform","1","1","m","0","0","0","0","0","23","NA","NA","23","23","0","23","23","23","23","0","11/26/15 09:32:00","Default description","no","mono","no","18","black","Ok","768","legacy","G:/Kunstmatige Intelligentie/Master/Jaar1/Cognitive Modeling - Basic Principles and Methods/Experiment/subject-2167018.csv","xpyriment","Interactive Ising","3.0.2","0","m","NA","NA","m","305","NA","NA","305","legacy","experiment","2167018","even","legacy","51080","NA","NA","NA","NA","144130","NA","NA","142221","143823","3270","144130","140710","140682","143823","3270","CogMod 2015 Experiment","24","7471","24","yes","1024"
"1","1600","150","15","100","100","310","310","white","no","xpyriment","legacy","legacy","0","uniform","1","1","m","0","0","0","0","0","24","NA","NA","24","24","0","24","24","24","24","0","11/26/15 09:32:00","Default description","no","mono","no","18","black","Ok","768","legacy","G:/Kunstmatige Intelligentie/Master/Jaar1/Cognitive Modeling - Basic Principles and Methods/Experiment/subject-2167018.csv","xpyriment","Interactive Ising","3.0.2","0","m","NA","NA","m","299","NA","NA","299","legacy","experiment","2167018","even","legacy","51080","NA","NA","NA","NA","148454","NA","NA","146552","148153","3270","148454","145043","145012","148153","3270","CogMod 2015 Experiment","25","7770","25","yes","1024"
"1","800","150","15","100","100","314","314","white","no","xpyriment","legacy","legacy","0","uniform","1","1","m","0","0","0","0","0","25","NA","NA","25","25","0","25","25","25","25","0","11/26/15 09:32:00","Default description","no","mono","no","18","black","Ok","768","legacy","G:/Kunstmatige Intelligentie/Master/Jaar1/Cognitive Modeling - Basic Principles and Methods/Experiment/subject-2167018.csv","xpyriment","Interactive Ising","3.0.2","0","m","NA","NA","m","396","NA","NA","396","legacy","experiment","2167018","even","legacy","51080","NA","NA","NA","NA","152174","NA","NA","150975","151776","3270","152174","149471","149439","151776","3270","CogMod 2015 Experiment","26","8166","26","yes","1024"
"1","1600","150","15","100","100","314","314","white","no","xpyriment","legacy","legacy","0","uniform","1","1","m","0","0","0","0","0","26","NA","NA","26","26","0","26","26","26","26","0","11/26/15 09:32:00","Default description","no","mono","no","18","black","Ok","768","legacy","G:/Kunstmatige Intelligentie/Master/Jaar1/Cognitive Modeling - Basic Principles and Methods/Experiment/subject-2167018.csv","xpyriment","Interactive Ising","3.0.2","0","m","NA","NA","m","322","NA","NA","322","legacy","experiment","2167018","even","legacy","51080","NA","NA","NA","NA","156506","NA","NA","154580","156182","3270","156506","153073","153041","156182","3270","CogMod 2015 Experiment","27","8488","27","yes","1024"
"1","1600","-150","15","100","100","313","313","white","no","xpyriment","legacy","legacy","0","uniform","1","1","z","0","0","0","0","0","27","NA","NA","27","27","0","27","27","27","27","0","11/26/15 09:32:00","Default description","no","mono","no","18","black","Ok","768","legacy","G:/Kunstmatige Intelligentie/Master/Jaar1/Cognitive Modeling - Basic Principles and Methods/Experiment/subject-2167018.csv","xpyriment","Interactive Ising","3.0.2","0","z","NA","NA","z","276","NA","NA","276","legacy","experiment","2167018","even","legacy","51080","NA","NA","NA","NA","160907","NA","NA","159025","160628","3270","160907","157516","157480","160628","3270","CogMod 2015 Experiment","28","8764","28","yes","1024"
"1","400","150","15","100","100","314","314","white","no","xpyriment","legacy","legacy","0","uniform","1","1","m","0","0","0","0","0","28","NA","NA","28","28","0","28","28","28","28","0","11/26/15 09:32:00","Default description","no","mono","no","18","black","Ok","768","legacy","G:/Kunstmatige Intelligentie/Master/Jaar1/Cognitive Modeling - Basic Principles and Methods/Experiment/subject-2167018.csv","xpyriment","Interactive Ising","3.0.2","0","m","NA","NA","m","370","NA","NA","370","legacy","experiment","2167018","even","legacy","51080","NA","NA","NA","NA","164141","NA","NA","163367","163769","3270","164142","161858","161823","163769","3270","CogMod 2015 Experiment","29","9134","29","yes","1024"
"1","400","150","15","100","100","315","315","white","no","xpyriment","legacy","legacy","0","uniform","1","1","m","0","0","0","0","0","29","NA","NA","29","29","0","29","29","29","29","0","11/26/15 09:32:00","Default description","no","mono","no","18","black","Ok","768","legacy","G:/Kunstmatige Intelligentie/Master/Jaar1/Cognitive Modeling - Basic Principles and Methods/Experiment/subject-2167018.csv","xpyriment","Interactive Ising","3.0.2","0","m","NA","NA","m","331","NA","NA","331","legacy","experiment","2167018","even","legacy","51080","NA","NA","NA","NA","167320","NA","NA","166584","166987","3270","167320","165075","165039","166987","3270","CogMod 2015 Experiment","30","9465","30","yes","1024"
"1","1200","-150","15","100","100","314","314","white","no","xpyriment","legacy","legacy","0","uniform","1","1","z","0","0","0","0","0","30","NA","NA","30","30","0","30","30","30","30","0","11/26/15 09:32:00","Default description","no","mono","no","18","black","Ok","768","legacy","G:/Kunstmatige Intelligentie/Master/Jaar1/Cognitive Modeling - Basic Principles and Methods/Experiment/subject-2167018.csv","xpyriment","Interactive Ising","3.0.2","0","z","NA","NA","z","281","NA","NA","281","legacy","experiment","2167018","even","legacy","51080","NA","NA","NA","NA","171393","NA","NA","169908","171110","3270","171393","168398","168358","171110","3270","CogMod 2015 Experiment","31","9746","31","yes","1024"
"1","800","-150","15","100","100","312","312","white","no","xpyriment","legacy","legacy","0","uniform","1","1","z","0","0","0","0","0","31","NA","NA","31","31","0","31","31","31","31","0","11/26/15 09:32:00","Default description","no","mono","no","18","black","Ok","768","legacy","G:/Kunstmatige Intelligentie/Master/Jaar1/Cognitive Modeling - Basic Principles and Methods/Experiment/subject-2167018.csv","xpyriment","Interactive Ising","3.0.2","0","z","NA","NA","z","265","NA","NA","265","legacy","experiment","2167018","even","legacy","51080","NA","NA","NA","NA","174897","NA","NA","173828","174630","3270","174897","172318","172282","174630","3270","CogMod 2015 Experiment","32","10011","32","yes","1024"
"1","400","-150","15","100","100","312","312","white","no","xpyriment","legacy","legacy","0","uniform","1","1","z","0","0","0","0","0","32","NA","NA","32","32","0","32","32","32","32","0","11/26/15 09:32:00","Default description","no","mono","no","18","black","Ok","768","legacy","G:/Kunstmatige Intelligentie/Master/Jaar1/Cognitive Modeling - Basic Principles and Methods/Experiment/subject-2167018.csv","xpyriment","Interactive Ising","3.0.2","0","z","NA","NA","z","302","NA","NA","302","legacy","experiment","2167018","even","legacy","51080","NA","NA","NA","NA","178019","NA","NA","177313","177715","3270","178019","175811","175780","177715","3270","CogMod 2015 Experiment","33","10313","33","yes","1024"
"1","400","150","15","100","100","311","311","white","no","xpyriment","legacy","legacy","0","uniform","1","1","m","0","0","0","0","0","33","NA","NA","33","33","0","33","33","33","33","0","11/26/15 09:32:00","Default description","no","mono","no","18","black","Ok","768","legacy","G:/Kunstmatige Intelligentie/Master/Jaar1/Cognitive Modeling - Basic Principles and Methods/Experiment/subject-2167018.csv","xpyriment","Interactive Ising","3.0.2","0","m","NA","NA","m","275","NA","NA","275","legacy","experiment","2167018","even","legacy","51080","NA","NA","NA","NA","181135","NA","NA","180454","180857","3270","181135","178951","178913","180856","3270","CogMod 2015 Experiment","34","10588","34","yes","1024"
"1","800","150","15","100","100","310","310","white","no","xpyriment","legacy","legacy","0","uniform","1","1","m","0","0","0","0","0","34","NA","NA","34","34","0","34","34","34","34","0","11/26/15 09:32:00","Default description","no","mono","no","18","black","Ok","768","legacy","G:/Kunstmatige Intelligentie/Master/Jaar1/Cognitive Modeling - Basic Principles and Methods/Experiment/subject-2167018.csv","xpyriment","Interactive Ising","3.0.2","0","m","NA","NA","m","291","NA","NA","291","legacy","experiment","2167018","even","legacy","51080","NA","NA","NA","NA","184669","NA","NA","183573","184376","3270","184669","182069","182033","184376","3270","CogMod 2015 Experiment","35","10879","35","yes","1024"
"1","1200","-150","15","100","100","310","310","white","no","xpyriment","legacy","legacy","0","uniform","1","1","z","0","0","0","0","0","35","NA","NA","35","35","0","35","35","35","35","0","11/26/15 09:32:00","Default description","no","mono","no","18","black","Ok","768","legacy","G:/Kunstmatige Intelligentie/Master/Jaar1/Cognitive Modeling - Basic Principles and Methods/Experiment/subject-2167018.csv","xpyriment","Interactive Ising","3.0.2","0","z","NA","NA","z","293","NA","NA","293","legacy","experiment","2167018","even","legacy","51080","NA","NA","NA","NA","188583","NA","NA","187085","188288","3270","188584","185577","185546","188288","3270","CogMod 2015 Experiment","36","11172","36","yes","1024"
"1","400","150","15","100","100","311","311","white","no","xpyriment","legacy","legacy","0","uniform","1","1","m","0","0","0","0","0","36","NA","NA","36","36","0","36","36","36","36","0","11/26/15 09:32:00","Default description","no","mono","no","18","black","Ok","768","legacy","G:/Kunstmatige Intelligentie/Master/Jaar1/Cognitive Modeling - Basic Principles and Methods/Experiment/subject-2167018.csv","xpyriment","Interactive Ising","3.0.2","0","m","NA","NA","m","342","NA","NA","342","legacy","experiment","2167018","even","legacy","51080","NA","NA","NA","NA","191805","NA","NA","191032","191434","3270","191805","189529","189498","191434","3270","CogMod 2015 Experiment","37","11514","37","yes","1024"
"1","800","150","15","100","100","310","310","white","no","xpyriment","legacy","legacy","0","uniform","1","1","m","0","0","0","0","0","37","NA","NA","37","37","0","37","37","37","37","0","11/26/15 09:32:00","Default description","no","mono","no","18","black","Ok","768","legacy","G:/Kunstmatige Intelligentie/Master/Jaar1/Cognitive Modeling - Basic Principles and Methods/Experiment/subject-2167018.csv","xpyriment","Interactive Ising","3.0.2","0","m","NA","NA","m","301","NA","NA","301","legacy","experiment","2167018","even","legacy","51080","NA","NA","NA","NA","195327","NA","NA","194222","195024","3270","195327","192712","192688","195024","3270","CogMod 2015 Experiment","38","11815","38","yes","1024"
"1","400","-150","15","100","100","310","310","white","no","xpyriment","legacy","legacy","0","uniform","1","1","z","0","0","0","0","0","38","NA","NA","38","38","0","38","38","38","38","0","11/26/15 09:32:00","Default description","no","mono","no","18","black","Ok","768","legacy","G:/Kunstmatige Intelligentie/Master/Jaar1/Cognitive Modeling - Basic Principles and Methods/Experiment/subject-2167018.csv","xpyriment","Interactive Ising","3.0.2","0","z","NA","NA","z","294","NA","NA","294","legacy","experiment","2167018","even","legacy","51080","NA","NA","NA","NA","198407","NA","NA","197708","198110","3270","198407","196204","196186","198109","3270","CogMod 2015 Experiment","39","12109","39","yes","1024"
"1","400","-150","15","100","100","309","309","white","no","xpyriment","legacy","legacy","0","uniform","1","1","z","0","0","0","0","0","39","NA","NA","39","39","0","39","39","39","39","0","11/26/15 09:32:00","Default description","no","mono","no","18","black","Ok","768","legacy","G:/Kunstmatige Intelligentie/Master/Jaar1/Cognitive Modeling - Basic Principles and Methods/Experiment/subject-2167018.csv","xpyriment","Interactive Ising","3.0.2","0","z","NA","NA","z","275","NA","NA","275","legacy","experiment","2167018","even","legacy","51080","NA","NA","NA","NA","201519","NA","NA","200839","201242","3270","201519","199330","199298","201242","3270","CogMod 2015 Experiment","40","12384","40","yes","1024"
"1","800","150","15","100","100","309","309","white","no","xpyriment","legacy","legacy","0","uniform","1","1","m","0","0","0","0","0","40","NA","NA","40","40","0","40","40","40","40","0","11/26/15 09:32:00","Default description","no","mono","no","18","black","Ok","768","legacy","G:/Kunstmatige Intelligentie/Master/Jaar1/Cognitive Modeling - Basic Principles and Methods/Experiment/subject-2167018.csv","xpyriment","Interactive Ising","3.0.2","0","m","NA","NA","m","301","NA","NA","301","legacy","experiment","2167018","even","legacy","51080","NA","NA","NA","NA","205057","NA","NA","203952","204754","3270","205058","202441","202411","204754","3270","CogMod 2015 Experiment","41","12685","41","yes","1024"
"1","1600","150","15","100","100","308","308","white","no","xpyriment","legacy","legacy","0","uniform","1","1","m","0","0","0","0","0","41","NA","NA","41","41","0","41","41","41","41","0","11/26/15 09:32:00","Default description","no","mono","no","18","black","Ok","768","legacy","G:/Kunstmatige Intelligentie/Master/Jaar1/Cognitive Modeling - Basic Principles and Methods/Experiment/subject-2167018.csv","xpyriment","Interactive Ising","3.0.2","0","m","NA","NA","m","266","NA","NA","266","legacy","experiment","2167018","even","legacy","51080","NA","NA","NA","NA","209368","NA","NA","207498","209100","3270","209368","205988","205960","209100","3270","CogMod 2015 Experiment","42","12951","42","yes","1024"
"1","1200","-150","15","100","100","308","308","white","no","xpyriment","legacy","legacy","0","uniform","1","1","z","0","0","0","0","0","42","NA","NA","42","42","0","42","42","42","42","0","11/26/15 09:32:00","Default description","no","mono","no","18","black","Ok","768","legacy","G:/Kunstmatige Intelligentie/Master/Jaar1/Cognitive Modeling - Basic Principles and Methods/Experiment/subject-2167018.csv","xpyriment","Interactive Ising","3.0.2","0","z","NA","NA","z","323","NA","NA","323","legacy","experiment","2167018","even","legacy","51080","NA","NA","NA","NA","213302","NA","NA","211775","212977","3270","213302","210266","210236","212977","3270","CogMod 2015 Experiment","43","13274","43","yes","1024"
"1","1200","150","15","100","100","308","308","white","no","xpyriment","legacy","legacy","0","uniform","1","1","m","0","0","0","0","0","43","NA","NA","43","43","0","43","43","43","43","0","11/26/15 09:32:00","Default description","no","mono","no","18","black","Ok","768","legacy","G:/Kunstmatige Intelligentie/Master/Jaar1/Cognitive Modeling - Basic Principles and Methods/Experiment/subject-2167018.csv","xpyriment","Interactive Ising","3.0.2","0","m","NA","NA","m","290","NA","NA","290","legacy","experiment","2167018","even","legacy","51080","NA","NA","NA","NA","217205","NA","NA","215710","216912","3270","217205","214201","214179","216912","3270","CogMod 2015 Experiment","44","13564","44","yes","1024"
"1","400","-150","15","100","100","308","308","white","no","xpyriment","legacy","legacy","0","uniform","1","1","z","0","0","0","0","0","44","NA","NA","44","44","0","44","44","44","44","0","11/26/15 09:32:00","Default description","no","mono","no","18","black","Ok","768","legacy","G:/Kunstmatige Intelligentie/Master/Jaar1/Cognitive Modeling - Basic Principles and Methods/Experiment/subject-2167018.csv","xpyriment","Interactive Ising","3.0.2","0","z","NA","NA","z","326","NA","NA","326","legacy","experiment","2167018","even","legacy","51080","NA","NA","NA","NA","220374","NA","NA","219643","220045","3270","220374","218134","218116","220045","3270","CogMod 2015 Experiment","45","13890","45","yes","1024"
"1","400","-150","15","100","100","309","309","white","no","xpyriment","legacy","legacy","0","uniform","1","1","z","0","0","0","0","0","45","NA","NA","45","45","0","45","45","45","45","0","11/26/15 09:32:00","Default description","no","mono","no","18","black","Ok","768","legacy","G:/Kunstmatige Intelligentie/Master/Jaar1/Cognitive Modeling - Basic Principles and Methods/Experiment/subject-2167018.csv","xpyriment","Interactive Ising","3.0.2","0","z","NA","NA","z","348","NA","NA","348","legacy","experiment","2167018","even","legacy","51080","NA","NA","NA","NA","223525","NA","NA","222773","223175","3270","223525","221263","221240","223174","3270","CogMod 2015 Experiment","46","14238","46","yes","1024"
"1","1200","-150","15","100","100","309","309","white","no","xpyriment","legacy","legacy","0","uniform","1","1","z","0","0","0","0","0","46","NA","NA","46","46","0","46","46","46","46","0","11/26/15 09:32:00","Default description","no","mono","no","18","black","Ok","768","legacy","G:/Kunstmatige Intelligentie/Master/Jaar1/Cognitive Modeling - Basic Principles and Methods/Experiment/subject-2167018.csv","xpyriment","Interactive Ising","3.0.2","0","z","NA","NA","z","307","NA","NA","307","legacy","experiment","2167018","even","legacy","51080","NA","NA","NA","NA","227487","NA","NA","225976","227178","3270","227487","224471","224442","227178","3270","CogMod 2015 Experiment","47","14545","47","yes","1024"
"1","1200","150","15","100","100","308","308","white","no","xpyriment","legacy","legacy","0","uniform","1","1","m","0","0","0","0","0","47","NA","NA","47","47","0","47","47","47","47","0","11/26/15 09:32:00","Default description","no","mono","no","18","black","Ok","768","legacy","G:/Kunstmatige Intelligentie/Master/Jaar1/Cognitive Modeling - Basic Principles and Methods/Experiment/subject-2167018.csv","xpyriment","Interactive Ising","3.0.2","0","m","NA","NA","m","260","NA","NA","260","legacy","experiment","2167018","even","legacy","51080","NA","NA","NA","NA","231384","NA","NA","229920","231121","3270","231384","228410","228379","231121","3270","CogMod 2015 Experiment","48","14805","48","yes","1024"
"1","400","150","15","100","100","309","309","white","no","xpyriment","legacy","legacy","0","uniform","1","1","m","0","0","0","0","0","48","NA","NA","48","48","0","48","48","48","48","0","11/26/15 09:32:00","Default description","no","mono","no","18","black","Ok","768","legacy","G:/Kunstmatige Intelligentie/Master/Jaar1/Cognitive Modeling - Basic Principles and Methods/Experiment/subject-2167018.csv","xpyriment","Interactive Ising","3.0.2","0","m","NA","NA","m","357","NA","NA","357","legacy","experiment","2167018","even","legacy","51080","NA","NA","NA","NA","234604","NA","NA","233841","234244","3270","234604","232333","232298","234244","3270","CogMod 2015 Experiment","49","15162","49","yes","1024"
"1","400","150","15","100","100","309","309","white","no","xpyriment","legacy","legacy","0","uniform","1","1","m","0","0","0","0","0","49","NA","NA","49","49","0","49","49","49","49","0","11/26/15 09:32:00","Default description","no","mono","no","18","black","Ok","768","legacy","G:/Kunstmatige Intelligentie/Master/Jaar1/Cognitive Modeling - Basic Principles and Methods/Experiment/subject-2167018.csv","xpyriment","Interactive Ising","3.0.2","0","m","NA","NA","m","326","NA","NA","326","legacy","experiment","2167018","even","legacy","51080","NA","NA","NA","NA","237758","NA","NA","237026","237429","3270","237758","235518","235487","237429","3270","CogMod 2015 Experiment","50","15488","50","yes","1024"
"1","800","-150","15","100","100","309","309","white","no","xpyriment","legacy","legacy","0","uniform","1","1","z","0","0","0","0","0","50","NA","NA","50","50","0","50","50","50","50","0","11/26/15 09:32:00","Default description","no","mono","no","18","black","Ok","768","legacy","G:/Kunstmatige Intelligentie/Master/Jaar1/Cognitive Modeling - Basic Principles and Methods/Experiment/subject-2167018.csv","xpyriment","Interactive Ising","3.0.2","0","z","NA","NA","z","290","NA","NA","290","legacy","experiment","2167018","even","legacy","51080","NA","NA","NA","NA","241290","NA","NA","240195","240998","3270","241291","238686","238654","240998","3270","CogMod 2015 Experiment","51","15778","51","yes","1024"
"1","1200","-150","15","100","100","309","309","white","no","xpyriment","legacy","legacy","0","uniform","1","1","z","0","0","0","0","0","51","NA","NA","51","51","0","51","51","51","51","0","11/26/15 09:32:00","Default description","no","mono","no","18","black","Ok","768","legacy","G:/Kunstmatige Intelligentie/Master/Jaar1/Cognitive Modeling - Basic Principles and Methods/Experiment/subject-2167018.csv","xpyriment","Interactive Ising","3.0.2","0","z","NA","NA","z","290","NA","NA","290","legacy","experiment","2167018","even","legacy","51080","NA","NA","NA","NA","245223","NA","NA","243729","244931","3270","245223","242220","242190","244930","3270","CogMod 2015 Experiment","52","16068","52","yes","1024"
"1","400","-150","15","100","100","308","308","white","no","xpyriment","legacy","legacy","0","uniform","1","1","z","0","0","0","0","0","52","NA","NA","52","52","0","52","52","52","52","0","11/26/15 09:32:00","Default description","no","mono","no","18","black","Ok","768","legacy","G:/Kunstmatige Intelligentie/Master/Jaar1/Cognitive Modeling - Basic Principles and Methods/Experiment/subject-2167018.csv","xpyriment","Interactive Ising","3.0.2","0","z","NA","NA","z","294","NA","NA","294","legacy","experiment","2167018","even","legacy","51080","NA","NA","NA","NA","248328","NA","NA","247630","248032","3270","248328","246121","246085","248032","3270","CogMod 2015 Experiment","53","16362","53","yes","1024"
"1","800","-150","15","100","100","308","308","white","no","xpyriment","legacy","legacy","0","uniform","1","1","z","0","0","0","0","0","53","NA","NA","53","53","0","53","53","53","53","0","11/26/15 09:32:00","Default description","no","mono","no","18","black","Ok","768","legacy","G:/Kunstmatige Intelligentie/Master/Jaar1/Cognitive Modeling - Basic Principles and Methods/Experiment/subject-2167018.csv","xpyriment","Interactive Ising","3.0.2","0","z","NA","NA","z","274","NA","NA","274","legacy","experiment","2167018","even","legacy","51080","NA","NA","NA","NA","251806","NA","NA","250727","251529","3270","251806","249225","249196","251528","3270","CogMod 2015 Experiment","54","16636","54","yes","1024"
"1","800","-150","15","100","100","307","307","white","no","xpyriment","legacy","legacy","0","uniform","1","1","z","0","0","0","0","0","54","NA","NA","54","54","0","54","54","54","54","0","11/26/15 09:32:00","Default description","no","mono","no","18","black","Ok","768","legacy","G:/Kunstmatige Intelligentie/Master/Jaar1/Cognitive Modeling - Basic Principles and Methods/Experiment/subject-2167018.csv","xpyriment","Interactive Ising","3.0.2","0","z","NA","NA","z","303","NA","NA","303","legacy","experiment","2167018","even","legacy","51080","NA","NA","NA","NA","255360","NA","NA","254252","255054","3270","255360","252742","252717","255054","3270","CogMod 2015 Experiment","55","16939","55","yes","1024"
"1","1200","-150","15","100","100","308","308","white","no","xpyriment","legacy","legacy","0","uniform","1","1","z","0","0","0","0","0","55","NA","NA","55","55","0","55","55","55","55","0","11/26/15 09:32:00","Default description","no","mono","no","18","black","Ok","768","legacy","G:/Kunstmatige Intelligentie/Master/Jaar1/Cognitive Modeling - Basic Principles and Methods/Experiment/subject-2167018.csv","xpyriment","Interactive Ising","3.0.2","0","z","NA","NA","z","335","NA","NA","335","legacy","experiment","2167018","even","legacy","51080","NA","NA","NA","NA","259348","NA","NA","257808","259010","3270","259348","256304","256285","259010","3270","CogMod 2015 Experiment","56","17274","56","yes","1024"
"1","800","-150","15","100","100","308","308","white","no","xpyriment","legacy","legacy","0","uniform","1","1","z","0","0","0","0","0","56","NA","NA","56","56","0","56","56","56","56","0","11/26/15 09:32:00","Default description","no","mono","no","18","black","Ok","768","legacy","G:/Kunstmatige Intelligentie/Master/Jaar1/Cognitive Modeling - Basic Principles and Methods/Experiment/subject-2167018.csv","xpyriment","Interactive Ising","3.0.2","0","z","NA","NA","z","295","NA","NA","295","legacy","experiment","2167018","even","legacy","51080","NA","NA","NA","NA","262872","NA","NA","261772","262575","3270","262872","260263","260237","262575","3270","CogMod 2015 Experiment","57","17569","57","yes","1024"
"1","800","-150","15","100","100","308","308","white","no","xpyriment","legacy","legacy","0","uniform","1","1","z","0","0","0","0","0","57","NA","NA","57","57","0","57","57","57","57","0","11/26/15 09:32:00","Default description","no","mono","no","18","black","Ok","768","legacy","G:/Kunstmatige Intelligentie/Master/Jaar1/Cognitive Modeling - Basic Principles and Methods/Experiment/subject-2167018.csv","xpyriment","Interactive Ising","3.0.2","0","z","NA","NA","z","314","NA","NA","314","legacy","experiment","2167018","even","legacy","51080","NA","NA","NA","NA","266404","NA","NA","265285","266087","3270","266404","263781","263753","266086","3270","CogMod 2015 Experiment","58","17883","58","yes","1024"
"1","400","-150","15","100","100","309","309","white","no","xpyriment","legacy","legacy","0","uniform","1","1","z","0","0","0","0","0","58","NA","NA","58","58","0","58","58","58","58","0","11/26/15 09:32:00","Default description","no","mono","no","18","black","Ok","768","legacy","G:/Kunstmatige Intelligentie/Master/Jaar1/Cognitive Modeling - Basic Principles and Methods/Experiment/subject-2167018.csv","xpyriment","Interactive Ising","3.0.2","0","z","NA","NA","z","374","NA","NA","374","legacy","experiment","2167018","even","legacy","51080","NA","NA","NA","NA","269616","NA","NA","268837","269239","3270","269616","267327","267296","269239","3270","CogMod 2015 Experiment","59","18257","59","yes","1024"
"1","1200","-150","15","100","100","309","309","white","no","xpyriment","legacy","legacy","0","uniform","1","1","z","0","0","0","0","0","59","NA","NA","59","59","0","59","59","59","59","0","11/26/15 09:32:00","Default description","no","mono","no","18","black","Ok","768","legacy","G:/Kunstmatige Intelligentie/Master/Jaar1/Cognitive Modeling - Basic Principles and Methods/Experiment/subject-2167018.csv","xpyriment","Interactive Ising","3.0.2","0","z","NA","NA","z","301","NA","NA","301","legacy","experiment","2167018","even","legacy","51080","NA","NA","NA","NA","273561","NA","NA","272055","273258","3270","273561","270546","270514","273258","3270","CogMod 2015 Experiment","60","18558","60","yes","1024"
"1","400","-150","15","100","100","309","309","white","no","xpyriment","legacy","legacy","0","uniform","1","1","z","0","0","0","0","0","60","NA","NA","60","60","0","60","60","60","60","0","11/26/15 09:32:00","Default description","no","mono","no","18","black","Ok","768","legacy","G:/Kunstmatige Intelligentie/Master/Jaar1/Cognitive Modeling - Basic Principles and Methods/Experiment/subject-2167018.csv","xpyriment","Interactive Ising","3.0.2","0","z","NA","NA","z","327","NA","NA","327","legacy","experiment","2167018","even","legacy","51080","NA","NA","NA","NA","276925","NA","NA","276193","276596","3270","276925","274686","274618","276596","3270","CogMod 2015 Experiment","61","18885","61","yes","1024"
"1","1200","150","15","100","100","308","308","white","no","xpyriment","legacy","legacy","0","uniform","1","1","m","0","0","0","0","0","61","NA","NA","61","61","0","61","61","61","61","0","11/26/15 09:32:00","Default description","no","mono","no","18","black","Ok","768","legacy","G:/Kunstmatige Intelligentie/Master/Jaar1/Cognitive Modeling - Basic Principles and Methods/Experiment/subject-2167018.csv","xpyriment","Interactive Ising","3.0.2","0","m","NA","NA","m","272","NA","NA","272","legacy","experiment","2167018","even","legacy","51080","NA","NA","NA","NA","280818","NA","NA","279342","280544","3270","280818","277838","277817","280544","3270","CogMod 2015 Experiment","62","19157","62","yes","1024"
"1","800","150","15","100","100","308","308","white","no","xpyriment","legacy","legacy","0","uniform","1","1","m","0","0","0","0","0","62","NA","NA","62","62","0","62","62","62","62","0","11/26/15 09:32:00","Default description","no","mono","no","18","black","Ok","768","legacy","G:/Kunstmatige Intelligentie/Master/Jaar1/Cognitive Modeling - Basic Principles and Methods/Experiment/subject-2167018.csv","xpyriment","Interactive Ising","3.0.2","0","m","NA","NA","m","308","NA","NA","308","legacy","experiment","2167018","even","legacy","51080","NA","NA","NA","NA","284329","NA","NA","283217","284019","3270","284329","281707","281686","284019","3270","CogMod 2015 Experiment","63","19465","63","yes","1024"
"1","1600","-150","15","100","100","308","308","white","no","xpyriment","legacy","legacy","0","uniform","1","1","z","0","0","0","0","0","63","NA","NA","63","63","0","63","63","63","63","0","11/26/15 09:32:00","Default description","no","mono","no","18","black","Ok","768","legacy","G:/Kunstmatige Intelligentie/Master/Jaar1/Cognitive Modeling - Basic Principles and Methods/Experiment/subject-2167018.csv","xpyriment","Interactive Ising","3.0.2","0","z","NA","NA","z","304","NA","NA","304","legacy","experiment","2167018","even","legacy","51080","NA","NA","NA","NA","288751","NA","NA","286843","288445","3270","288751","285335","285316","288445","3270","CogMod 2015 Experiment","64","19769","64","yes","1024"
"1","400","150","15","100","100","309","309","white","no","xpyriment","legacy","legacy","0","uniform","1","1","m","0","0","0","0","0","64","NA","NA","64","64","0","64","64","64","64","0","11/26/15 09:32:00","Default description","no","mono","no","18","black","Ok","768","legacy","G:/Kunstmatige Intelligentie/Master/Jaar1/Cognitive Modeling - Basic Principles and Methods/Experiment/subject-2167018.csv","xpyriment","Interactive Ising","3.0.2","0","m","NA","NA","m","319","NA","NA","319","legacy","experiment","2167018","even","legacy","51080","NA","NA","NA","NA","291915","NA","NA","291191","291594","3270","291915","289682","289659","291594","3270","CogMod 2015 Experiment","65","20088","65","yes","1024"
"1","800","-150","15","100","100","308","308","white","no","xpyriment","legacy","legacy","0","uniform","1","1","z","0","0","0","0","0","65","NA","NA","65","65","0","65","65","65","65","0","11/26/15 09:32:00","Default description","no","mono","no","18","black","Ok","768","legacy","G:/Kunstmatige Intelligentie/Master/Jaar1/Cognitive Modeling - Basic Principles and Methods/Experiment/subject-2167018.csv","xpyriment","Interactive Ising","3.0.2","0","z","NA","NA","z","269","NA","NA","269","legacy","experiment","2167018","even","legacy","51080","NA","NA","NA","NA","295444","NA","NA","294368","295173","3270","295444","292860","292818","295173","3270","CogMod 2015 Experiment","66","20357","66","yes","1024"
"1","1600","150","15","100","100","308","308","white","no","xpyriment","legacy","legacy","0","uniform","1","1","m","0","0","0","0","0","66","NA","NA","66","66","0","66","66","66","66","0","11/26/15 09:32:00","Default description","no","mono","no","18","black","Ok","768","legacy","G:/Kunstmatige Intelligentie/Master/Jaar1/Cognitive Modeling - Basic Principles and Methods/Experiment/subject-2167018.csv","xpyriment","Interactive Ising","3.0.2","0","m","NA","NA","m","297","NA","NA","297","legacy","experiment","2167018","even","legacy","51080","NA","NA","NA","NA","299777","NA","NA","297876","299478","3270","299777","296372","296343","299478","3270","CogMod 2015 Experiment","67","20654","67","yes","1024"
"1","400","150","15","100","100","308","308","white","no","xpyriment","legacy","legacy","0","uniform","1","1","m","0","0","0","0","0","67","NA","NA","67","67","0","67","67","67","67","0","11/26/15 09:32:00","Default description","no","mono","no","18","black","Ok","768","legacy","G:/Kunstmatige Intelligentie/Master/Jaar1/Cognitive Modeling - Basic Principles and Methods/Experiment/subject-2167018.csv","xpyriment","Interactive Ising","3.0.2","0","m","NA","NA","m","344","NA","NA","344","legacy","experiment","2167018","even","legacy","51080","NA","NA","NA","NA","303037","NA","NA","302288","302691","3270","303037","300782","300752","302690","3270","CogMod 2015 Experiment","68","20998","68","yes","1024"
"1","1200","150","15","100","100","308","308","white","no","xpyriment","legacy","legacy","0","uniform","1","1","m","0","0","0","0","0","68","NA","NA","68","68","0","68","68","68","68","0","11/26/15 09:32:00","Default description","no","mono","no","18","black","Ok","768","legacy","G:/Kunstmatige Intelligentie/Master/Jaar1/Cognitive Modeling - Basic Principles and Methods/Experiment/subject-2167018.csv","xpyriment","Interactive Ising","3.0.2","0","m","NA","NA","m","315","NA","NA","315","legacy","experiment","2167018","even","legacy","51080","NA","NA","NA","NA","307152","NA","NA","305632","306835","3270","307152","304123","304085","306835","3270","CogMod 2015 Experiment","69","21313","69","yes","1024"
"1","800","-150","15","100","100","308","308","white","no","xpyriment","legacy","legacy","0","uniform","1","1","z","0","0","0","0","0","69","NA","NA","69","69","0","69","69","69","69","0","11/26/15 09:32:00","Default description","no","mono","no","18","black","Ok","768","legacy","G:/Kunstmatige Intelligentie/Master/Jaar1/Cognitive Modeling - Basic Principles and Methods/Experiment/subject-2167018.csv","xpyriment","Interactive Ising","3.0.2","0","z","NA","NA","z","290","NA","NA","290","legacy","experiment","2167018","even","legacy","51080","NA","NA","NA","NA","310690","NA","NA","309594","310397","3270","310690","308085","308055","310397","3270","CogMod 2015 Experiment","70","21603","70","yes","1024"
"1","1200","150","15","100","100","308","308","white","no","xpyriment","legacy","legacy","0","uniform","1","1","m","0","0","0","0","0","70","NA","NA","70","70","0","70","70","70","70","0","11/26/15 09:32:00","Default description","no","mono","no","18","black","Ok","768","legacy","G:/Kunstmatige Intelligentie/Master/Jaar1/Cognitive Modeling - Basic Principles and Methods/Experiment/subject-2167018.csv","xpyriment","Interactive Ising","3.0.2","0","m","NA","NA","m","279","NA","NA","279","legacy","experiment","2167018","even","legacy","51080","NA","NA","NA","NA","314612","NA","NA","313128","314330","3270","314612","311619","311583","314330","3270","CogMod 2015 Experiment","71","21882","71","yes","1024"
"1","1200","150","15","100","100","308","308","white","no","xpyriment","legacy","legacy","0","uniform","1","1","m","0","0","0","0","0","71","NA","NA","71","71","0","71","71","71","71","0","11/26/15 09:32:00","Default description","no","mono","no","18","black","Ok","768","legacy","G:/Kunstmatige Intelligentie/Master/Jaar1/Cognitive Modeling - Basic Principles and Methods/Experiment/subject-2167018.csv","xpyriment","Interactive Ising","3.0.2","0","m","NA","NA","m","300","NA","NA","300","legacy","experiment","2167018","even","legacy","51080","NA","NA","NA","NA","318642","NA","NA","317137","318340","3270","318642","315627","315596","318340","3270","CogMod 2015 Experiment","72","22182","72","yes","1024"
"1","800","-150","15","100","100","307","307","white","no","xpyriment","legacy","legacy","0","uniform","1","1","z","0","0","0","0","0","72","NA","NA","72","72","0","72","72","72","72","0","11/26/15 09:32:00","Default description","no","mono","no","18","black","Ok","768","legacy","G:/Kunstmatige Intelligentie/Master/Jaar1/Cognitive Modeling - Basic Principles and Methods/Experiment/subject-2167018.csv","xpyriment","Interactive Ising","3.0.2","0","z","NA","NA","z","283","NA","NA","283","legacy","experiment","2167018","even","legacy","51080","NA","NA","NA","NA","322266","NA","NA","321180","321981","3270","322266","319676","319650","321981","3270","CogMod 2015 Experiment","73","22465","73","yes","1024"
"1","400","-150","15","100","100","307","307","white","no","xpyriment","legacy","legacy","0","uniform","1","1","z","0","0","0","0","0","73","NA","NA","73","73","0","73","73","73","73","0","11/26/15 09:32:00","Default description","no","mono","no","18","black","Ok","768","legacy","G:/Kunstmatige Intelligentie/Master/Jaar1/Cognitive Modeling - Basic Principles and Methods/Experiment/subject-2167018.csv","xpyriment","Interactive Ising","3.0.2","0","z","NA","NA","z","288","NA","NA","288","legacy","experiment","2167018","even","legacy","51080","NA","NA","NA","NA","325401","NA","NA","324709","325111","3270","325402","323200","323172","325111","3270","CogMod 2015 Experiment","74","22753","74","yes","1024"
"1","800","-150","15","100","100","307","307","white","no","xpyriment","legacy","legacy","0","uniform","1","1","z","0","0","0","0","0","74","NA","NA","74","74","0","74","74","74","74","0","11/26/15 09:32:00","Default description","no","mono","no","18","black","Ok","768","legacy","G:/Kunstmatige Intelligentie/Master/Jaar1/Cognitive Modeling - Basic Principles and Methods/Experiment/subject-2167018.csv","xpyriment","Interactive Ising","3.0.2","0","z","NA","NA","z","274","NA","NA","274","legacy","experiment","2167018","even","legacy","51080","NA","NA","NA","NA","328947","NA","NA","327869","328671","3270","328948","326359","326335","328671","3270","CogMod 2015 Experiment","75","23027","75","yes","1024"
"1","800","-150","15","100","100","306","306","white","no","xpyriment","legacy","legacy","0","uniform","1","1","z","0","0","0","0","0","75","NA","NA","75","75","0","75","75","75","75","0","11/26/15 09:32:00","Default description","no","mono","no","18","black","Ok","768","legacy","G:/Kunstmatige Intelligentie/Master/Jaar1/Cognitive Modeling - Basic Principles and Methods/Experiment/subject-2167018.csv","xpyriment","Interactive Ising","3.0.2","0","z","NA","NA","z","281","NA","NA","281","legacy","experiment","2167018","even","legacy","51080","NA","NA","NA","NA","332444","NA","NA","331359","332161","3270","332444","329849","329828","332161","3270","CogMod 2015 Experiment","76","23308","76","yes","1024"
"1","1600","-150","15","100","100","306","306","white","no","xpyriment","legacy","legacy","0","uniform","1","1","z","0","0","0","0","0","76","NA","NA","76","76","0","76","76","76","76","0","11/26/15 09:32:00","Default description","no","mono","no","18","black","Ok","768","legacy","G:/Kunstmatige Intelligentie/Master/Jaar1/Cognitive Modeling - Basic Principles and Methods/Experiment/subject-2167018.csv","xpyriment","Interactive Ising","3.0.2","0","z","NA","NA","z","285","NA","NA","285","legacy","experiment","2167018","even","legacy","51080","NA","NA","NA","NA","336734","NA","NA","334845","336447","3270","336734","333336","333313","336446","3270","CogMod 2015 Experiment","77","23593","77","yes","1024"
"1","800","150","15","100","100","306","306","white","no","xpyriment","legacy","legacy","0","uniform","1","1","m","0","0","0","0","0","77","NA","NA","77","77","0","77","77","77","77","0","11/26/15 09:32:00","Default description","no","mono","no","18","black","Ok","768","legacy","G:/Kunstmatige Intelligentie/Master/Jaar1/Cognitive Modeling - Basic Principles and Methods/Experiment/subject-2167018.csv","xpyriment","Interactive Ising","3.0.2","0","m","NA","NA","m","297","NA","NA","297","legacy","experiment","2167018","even","legacy","51080","NA","NA","NA","NA","340263","NA","NA","339162","339964","3270","340263","337656","337627","339964","3270","CogMod 2015 Experiment","78","23890","78","yes","1024"
"1","800","150","15","100","100","306","306","white","no","xpyriment","legacy","legacy","0","uniform","1","1","m","0","0","0","0","0","78","NA","NA","78","78","0","78","78","78","78","0","11/26/15 09:32:00","Default description","no","mono","no","18","black","Ok","768","legacy","G:/Kunstmatige Intelligentie/Master/Jaar1/Cognitive Modeling - Basic Principles and Methods/Experiment/subject-2167018.csv","xpyriment","Interactive Ising","3.0.2","0","m","NA","NA","m","311","NA","NA","311","legacy","experiment","2167018","even","legacy","51080","NA","NA","NA","NA","343803","NA","NA","342688","343490","3270","343803","341179","341147","343490","3270","CogMod 2015 Experiment","79","24201","79","yes","1024"
"1","1200","150","15","100","100","306","306","white","no","xpyriment","legacy","legacy","0","uniform","1","1","m","0","0","0","0","0","79","NA","NA","79","79","0","79","79","79","79","0","11/26/15 09:32:00","Default description","no","mono","no","18","black","Ok","768","legacy","G:/Kunstmatige Intelligentie/Master/Jaar1/Cognitive Modeling - Basic Principles and Methods/Experiment/subject-2167018.csv","xpyriment","Interactive Ising","3.0.2","0","m","NA","NA","m","306","NA","NA","306","legacy","experiment","2167018","even","legacy","51080","NA","NA","NA","NA","347742","NA","NA","346231","347433","3270","347742","344722","344689","347433","3270","CogMod 2015 Experiment","80","24507","80","yes","1024"
"1","1200","-150","15","100","100","306","306","white","no","xpyriment","legacy","legacy","0","uniform","1","1","z","0","0","0","0","0","80","NA","NA","80","80","0","80","80","80","80","0","11/26/15 09:32:00","Default description","no","mono","no","18","black","Ok","768","legacy","G:/Kunstmatige Intelligentie/Master/Jaar1/Cognitive Modeling - Basic Principles and Methods/Experiment/subject-2167018.csv","xpyriment","Interactive Ising","3.0.2","0","z","NA","NA","z","300","NA","NA","300","legacy","experiment","2167018","even","legacy","51080","NA","NA","NA","NA","351647","NA","NA","350141","351344","3270","351647","348635","348604","351343","3270","CogMod 2015 Experiment","81","24807","81","yes","1024"
"1","1600","-150","15","100","100","306","306","white","no","xpyriment","legacy","legacy","0","uniform","1","1","z","0","0","0","0","0","81","NA","NA","81","81","0","81","81","81","81","0","11/26/15 09:32:00","Default description","no","mono","no","18","black","Ok","768","legacy","G:/Kunstmatige Intelligentie/Master/Jaar1/Cognitive Modeling - Basic Principles and Methods/Experiment/subject-2167018.csv","xpyriment","Interactive Ising","3.0.2","0","z","NA","NA","z","322","NA","NA","322","legacy","experiment","2167018","even","legacy","51080","NA","NA","NA","NA","356014","NA","NA","354087","355689","3270","356014","352578","352541","355689","3270","CogMod 2015 Experiment","82","25129","82","yes","1024"
"1","1600","-150","15","100","100","306","306","white","no","xpyriment","legacy","legacy","0","uniform","1","1","z","0","0","0","0","0","82","NA","NA","82","82","0","82","82","82","82","0","11/26/15 09:32:00","Default description","no","mono","no","18","black","Ok","768","legacy","G:/Kunstmatige Intelligentie/Master/Jaar1/Cognitive Modeling - Basic Principles and Methods/Experiment/subject-2167018.csv","xpyriment","Interactive Ising","3.0.2","0","z","NA","NA","z","308","NA","NA","308","legacy","experiment","2167018","even","legacy","51080","NA","NA","NA","NA","360380","NA","NA","358467","360069","3270","360380","356963","356931","360069","3270","CogMod 2015 Experiment","83","25437","83","yes","1024"
"1","1200","150","15","100","100","306","306","white","no","xpyriment","legacy","legacy","0","uniform","1","1","m","0","0","0","0","0","83","NA","NA","83","83","0","83","83","83","83","0","11/26/15 09:32:00","Default description","no","mono","no","18","black","Ok","768","legacy","G:/Kunstmatige Intelligentie/Master/Jaar1/Cognitive Modeling - Basic Principles and Methods/Experiment/subject-2167018.csv","xpyriment","Interactive Ising","3.0.2","0","m","NA","NA","m","316","NA","NA","316","legacy","experiment","2167018","even","legacy","51080","NA","NA","NA","NA","364451","NA","NA","362930","364132","3270","364451","361426","361358","364132","3270","CogMod 2015 Experiment","84","25753","84","yes","1024"
"1","1600","-150","15","100","100","306","306","white","no","xpyriment","legacy","legacy","0","uniform","1","1","z","0","0","0","0","0","84","NA","NA","84","84","0","84","84","84","84","0","11/26/15 09:32:00","Default description","no","mono","no","18","black","Ok","768","legacy","G:/Kunstmatige Intelligentie/Master/Jaar1/Cognitive Modeling - Basic Principles and Methods/Experiment/subject-2167018.csv","xpyriment","Interactive Ising","3.0.2","0","z","NA","NA","z","298","NA","NA","298","legacy","experiment","2167018","even","legacy","51080","NA","NA","NA","NA","368786","NA","NA","366883","368485","3270","368786","365381","365360","368485","3270","CogMod 2015 Experiment","85","26051","85","yes","1024"
"1","1200","-150","15","100","100","306","306","white","no","xpyriment","legacy","legacy","0","uniform","1","1","z","0","0","0","0","0","85","NA","NA","85","85","0","85","85","85","85","0","11/26/15 09:32:00","Default description","no","mono","no","18","black","Ok","768","legacy","G:/Kunstmatige Intelligentie/Master/Jaar1/Cognitive Modeling - Basic Principles and Methods/Experiment/subject-2167018.csv","xpyriment","Interactive Ising","3.0.2","0","z","NA","NA","z","293","NA","NA","293","legacy","experiment","2167018","even","legacy","51080","NA","NA","NA","NA","372711","NA","NA","371214","372416","3270","372712","369705","369687","372415","3270","CogMod 2015 Experiment","86","26344","86","yes","1024"
"1","1600","150","15","100","100","306","306","white","no","xpyriment","legacy","legacy","0","uniform","1","1","m","0","0","0","0","0","86","NA","NA","86","86","0","86","86","86","86","0","11/26/15 09:32:00","Default description","no","mono","no","18","black","Ok","768","legacy","G:/Kunstmatige Intelligentie/Master/Jaar1/Cognitive Modeling - Basic Principles and Methods/Experiment/subject-2167018.csv","xpyriment","Interactive Ising","3.0.2","0","m","NA","NA","m","280","NA","NA","280","legacy","experiment","2167018","even","legacy","51080","NA","NA","NA","NA","377098","NA","NA","375213","376815","3270","377098","373703","373677","376815","3270","CogMod 2015 Experiment","87","26624","87","yes","1024"
"1","800","-150","15","100","100","306","306","white","no","xpyriment","legacy","legacy","0","uniform","1","1","z","0","0","0","0","0","87","NA","NA","87","87","0","87","87","87","87","0","11/26/15 09:32:00","Default description","no","mono","no","18","black","Ok","768","legacy","G:/Kunstmatige Intelligentie/Master/Jaar1/Cognitive Modeling - Basic Principles and Methods/Experiment/subject-2167018.csv","xpyriment","Interactive Ising","3.0.2","0","z","NA","NA","z","315","NA","NA","315","legacy","experiment","2167018","even","legacy","51080","NA","NA","NA","NA","380685","NA","NA","379566","380368","3270","380685","378062","378039","380367","3270","CogMod 2015 Experiment","88","26939","88","yes","1024"
"1","400","-150","15","100","100","306","306","white","no","xpyriment","legacy","legacy","0","uniform","1","1","z","0","0","0","0","0","88","NA","NA","88","88","0","88","88","88","88","0","11/26/15 09:32:00","Default description","no","mono","no","18","black","Ok","768","legacy","G:/Kunstmatige Intelligentie/Master/Jaar1/Cognitive Modeling - Basic Principles and Methods/Experiment/subject-2167018.csv","xpyriment","Interactive Ising","3.0.2","0","z","NA","NA","z","330","NA","NA","330","legacy","experiment","2167018","even","legacy","51080","NA","NA","NA","NA","383877","NA","NA","383143","383545","3270","383878","381638","381604","383544","3270","CogMod 2015 Experiment","89","27269","89","yes","1024"
"1","1600","-150","15","100","100","306","306","white","no","xpyriment","legacy","legacy","0","uniform","1","1","z","0","0","0","0","0","89","NA","NA","89","89","0","89","89","89","89","0","11/26/15 09:32:00","Default description","no","mono","no","18","black","Ok","768","legacy","G:/Kunstmatige Intelligentie/Master/Jaar1/Cognitive Modeling - Basic Principles and Methods/Experiment/subject-2167018.csv","xpyriment","Interactive Ising","3.0.2","0","z","NA","NA","z","295","NA","NA","295","legacy","experiment","2167018","even","legacy","51080","NA","NA","NA","NA","388246","NA","NA","386347","387949","3270","388246","384843","384809","387949","3270","CogMod 2015 Experiment","90","27564","90","yes","1024"
"1","400","150","15","100","100","306","306","white","no","xpyriment","legacy","legacy","0","uniform","1","1","m","0","0","0","0","0","90","NA","NA","90","90","0","90","90","90","90","0","11/26/15 09:32:00","Default description","no","mono","no","18","black","Ok","768","legacy","G:/Kunstmatige Intelligentie/Master/Jaar1/Cognitive Modeling - Basic Principles and Methods/Experiment/subject-2167018.csv","xpyriment","Interactive Ising","3.0.2","0","m","NA","NA","m","336","NA","NA","336","legacy","experiment","2167018","even","legacy","51080","NA","NA","NA","NA","391474","NA","NA","390734","391136","3270","391474","389226","389196","391135","3270","CogMod 2015 Experiment","91","27900","91","yes","1024"
"1","1600","-150","15","100","100","306","306","white","no","xpyriment","legacy","legacy","0","uniform","1","1","z","0","0","0","0","0","91","NA","NA","91","91","0","91","91","91","91","0","11/26/15 09:32:00","Default description","no","mono","no","18","black","Ok","768","legacy","G:/Kunstmatige Intelligentie/Master/Jaar1/Cognitive Modeling - Basic Principles and Methods/Experiment/subject-2167018.csv","xpyriment","Interactive Ising","3.0.2","0","z","NA","NA","z","272","NA","NA","272","legacy","experiment","2167018","even","legacy","51080","NA","NA","NA","NA","395755","NA","NA","393876","395480","3270","395755","392374","392345","395479","3270","CogMod 2015 Experiment","92","28172","92","yes","1024"
"1","1600","-150","15","100","100","306","306","white","no","xpyriment","legacy","legacy","0","uniform","1","1","z","0","0","0","0","0","92","NA","NA","92","92","0","92","92","92","92","0","11/26/15 09:32:00","Default description","no","mono","no","18","black","Ok","768","legacy","G:/Kunstmatige Intelligentie/Master/Jaar1/Cognitive Modeling - Basic Principles and Methods/Experiment/subject-2167018.csv","xpyriment","Interactive Ising","3.0.2","0","z","NA","NA","z","337","NA","NA","337","legacy","experiment","2167018","even","legacy","51080","NA","NA","NA","NA","400171","NA","NA","398230","399832","3270","400171","396721","396697","399832","3270","CogMod 2015 Experiment","93","28509","93","yes","1024"
"1","1200","150","15","100","100","306","306","white","no","xpyriment","legacy","legacy","0","uniform","1","1","m","0","0","0","0","0","93","NA","NA","93","93","0","93","93","93","93","0","11/26/15 09:32:00","Default description","no","mono","no","18","black","Ok","768","legacy","G:/Kunstmatige Intelligentie/Master/Jaar1/Cognitive Modeling - Basic Principles and Methods/Experiment/subject-2167018.csv","xpyriment","Interactive Ising","3.0.2","0","m","NA","NA","m","301","NA","NA","301","legacy","experiment","2167018","even","legacy","51080","NA","NA","NA","NA","404116","NA","NA","402611","403813","3270","404116","401107","401085","403812","3270","CogMod 2015 Experiment","94","28810","94","yes","1024"
"1","800","150","15","100","100","306","306","white","no","xpyriment","legacy","legacy","0","uniform","1","1","m","0","0","0","0","0","94","NA","NA","94","94","0","94","94","94","94","0","11/26/15 09:32:00","Default description","no","mono","no","18","black","Ok","768","legacy","G:/Kunstmatige Intelligentie/Master/Jaar1/Cognitive Modeling - Basic Principles and Methods/Experiment/subject-2167018.csv","xpyriment","Interactive Ising","3.0.2","0","m","NA","NA","m","328","NA","NA","328","legacy","experiment","2167018","even","legacy","51080","NA","NA","NA","NA","407753","NA","NA","406622","407423","3270","407753","405118","405097","407423","3270","CogMod 2015 Experiment","95","29138","95","yes","1024"
"1","1600","150","15","100","100","306","306","white","no","xpyriment","legacy","legacy","0","uniform","1","1","m","0","0","0","0","0","95","NA","NA","95","95","0","95","95","95","95","0","11/26/15 09:32:00","Default description","no","mono","no","18","black","Ok","768","legacy","G:/Kunstmatige Intelligentie/Master/Jaar1/Cognitive Modeling - Basic Principles and Methods/Experiment/subject-2167018.csv","xpyriment","Interactive Ising","3.0.2","0","m","NA","NA","m","324","NA","NA","324","legacy","experiment","2167018","even","legacy","51080","NA","NA","NA","NA","412131","NA","NA","410203","411805","3270","412131","408694","408672","411805","3270","CogMod 2015 Experiment","96","29462","96","yes","1024"
"1","1200","150","15","100","100","306","306","white","no","xpyriment","legacy","legacy","0","uniform","1","1","m","0","0","0","0","0","96","NA","NA","96","96","0","96","96","96","96","0","11/26/15 09:32:00","Default description","no","mono","no","18","black","Ok","768","legacy","G:/Kunstmatige Intelligentie/Master/Jaar1/Cognitive Modeling - Basic Principles and Methods/Experiment/subject-2167018.csv","xpyriment","Interactive Ising","3.0.2","0","m","NA","NA","m","285","NA","NA","285","legacy","experiment","2167018","even","legacy","51080","NA","NA","NA","NA","416037","NA","NA","414547","415749","3270","416037","413037","413017","415749","3270","CogMod 2015 Experiment","97","29747","97","yes","1024"
"1","800","-150","15","100","100","306","306","white","no","xpyriment","legacy","legacy","0","uniform","1","1","z","0","0","0","0","0","97","NA","NA","97","97","0","97","97","97","97","0","11/26/15 09:32:00","Default description","no","mono","no","18","black","Ok","768","legacy","G:/Kunstmatige Intelligentie/Master/Jaar1/Cognitive Modeling - Basic Principles and Methods/Experiment/subject-2167018.csv","xpyriment","Interactive Ising","3.0.2","0","z","NA","NA","z","323","NA","NA","323","legacy","experiment","2167018","even","legacy","51080","NA","NA","NA","NA","419651","NA","NA","418523","419325","3270","419651","417015","416988","419325","3270","CogMod 2015 Experiment","98","30070","98","yes","1024"
"1","800","150","15","100","100","306","306","white","no","xpyriment","legacy","legacy","0","uniform","1","1","m","0","0","0","0","0","98","NA","NA","98","98","0","98","98","98","98","0","11/26/15 09:32:00","Default description","no","mono","no","18","black","Ok","768","legacy","G:/Kunstmatige Intelligentie/Master/Jaar1/Cognitive Modeling - Basic Principles and Methods/Experiment/subject-2167018.csv","xpyriment","Interactive Ising","3.0.2","0","m","NA","NA","m","270","NA","NA","270","legacy","experiment","2167018","even","legacy","51080","NA","NA","NA","NA","423163","NA","NA","422089","422891","3270","423163","420581","420549","422891","3270","CogMod 2015 Experiment","99","30340","99","yes","1024"
"1","1600","150","15","100","100","306","306","white","no","xpyriment","legacy","legacy","0","uniform","1","1","m","0","0","0","0","0","99","NA","NA","99","99","0","99","99","99","99","0","11/26/15 09:32:00","Default description","no","mono","no","18","black","Ok","768","legacy","G:/Kunstmatige Intelligentie/Master/Jaar1/Cognitive Modeling - Basic Principles and Methods/Experiment/subject-2167018.csv","xpyriment","Interactive Ising","3.0.2","0","m","NA","NA","m","330","NA","NA","330","legacy","experiment","2167018","even","legacy","51080","NA","NA","NA","NA","427489","NA","NA","425554","427157","3270","427489","424045","424016","427157","3270","CogMod 2015 Experiment","100","30670","100","yes","1024"
"1","1200","-150","15","100","100","306","306","white","no","xpyriment","legacy","legacy","0","uniform","1","1","z","0","0","0","0","0","100","NA","NA","100","100","0","100","100","100","100","0","11/26/15 09:32:00","Default description","no","mono","no","18","black","Ok","768","legacy","G:/Kunstmatige Intelligentie/Master/Jaar1/Cognitive Modeling - Basic Principles and Methods/Experiment/subject-2167018.csv","xpyriment","Interactive Ising","3.0.2","0","z","NA","NA","z","274","NA","NA","274","legacy","experiment","2167018","even","legacy","51080","NA","NA","NA","NA","431492","NA","NA","430014","431216","3270","431492","428510","428478","431216","3270","CogMod 2015 Experiment","101","30944","101","yes","1024"
"1","400","150","15","100","100","306","306","white","no","xpyriment","legacy","legacy","0","uniform","1","1","m","0","0","0","0","0","101","NA","NA","101","101","0","101","101","101","101","0","11/26/15 09:32:00","Default description","no","mono","no","18","black","Ok","768","legacy","G:/Kunstmatige Intelligentie/Master/Jaar1/Cognitive Modeling - Basic Principles and Methods/Experiment/subject-2167018.csv","xpyriment","Interactive Ising","3.0.2","0","m","NA","NA","m","324","NA","NA","324","legacy","experiment","2167018","even","legacy","51080","NA","NA","NA","NA","434631","NA","NA","433901","434304","3270","434631","432392","432360","434304","3270","CogMod 2015 Experiment","102","31268","102","yes","1024"
"1","400","-150","15","100","100","306","306","white","no","xpyriment","legacy","legacy","0","uniform","1","1","z","0","0","0","0","0","102","NA","NA","102","102","0","102","102","102","102","0","11/26/15 09:32:00","Default description","no","mono","no","18","black","Ok","768","legacy","G:/Kunstmatige Intelligentie/Master/Jaar1/Cognitive Modeling - Basic Principles and Methods/Experiment/subject-2167018.csv","xpyriment","Interactive Ising","3.0.2","0","z","NA","NA","z","318","NA","NA","318","legacy","experiment","2167018","even","legacy","51080","NA","NA","NA","NA","437792","NA","NA","437070","437472","3270","437793","435561","435522","437472","3270","CogMod 2015 Experiment","103","31586","103","yes","1024"
"1","1600","150","15","100","100","306","306","white","no","xpyriment","legacy","legacy","0","uniform","1","1","m","0","0","0","0","0","103","NA","NA","103","103","0","103","103","103","103","0","11/26/15 09:32:00","Default description","no","mono","no","18","black","Ok","768","legacy","G:/Kunstmatige Intelligentie/Master/Jaar1/Cognitive Modeling - Basic Principles and Methods/Experiment/subject-2167018.csv","xpyriment","Interactive Ising","3.0.2","0","m","NA","NA","m","292","NA","NA","292","legacy","experiment","2167018","even","legacy","51080","NA","NA","NA","NA","442098","NA","NA","440202","441804","3270","442098","438694","438655","441804","3270","CogMod 2015 Experiment","104","31878","104","yes","1024"
"1","400","150","15","100","100","306","306","white","no","xpyriment","legacy","legacy","0","uniform","1","1","m","0","0","0","0","0","104","NA","NA","104","104","0","104","104","104","104","0","11/26/15 09:32:00","Default description","no","mono","no","18","black","Ok","768","legacy","G:/Kunstmatige Intelligentie/Master/Jaar1/Cognitive Modeling - Basic Principles and Methods/Experiment/subject-2167018.csv","xpyriment","Interactive Ising","3.0.2","0","m","NA","NA","m","355","NA","NA","355","legacy","experiment","2167018","even","legacy","51080","NA","NA","NA","NA","445283","NA","NA","444522","444925","3270","445283","443013","442976","444924","3270","CogMod 2015 Experiment","105","32233","105","yes","1024"
"1","1200","-150","15","100","100","307","307","white","no","xpyriment","legacy","legacy","0","uniform","1","1","z","0","0","0","0","0","105","NA","NA","105","105","0","105","105","105","105","0","11/26/15 09:32:00","Default description","no","mono","no","18","black","Ok","768","legacy","G:/Kunstmatige Intelligentie/Master/Jaar1/Cognitive Modeling - Basic Principles and Methods/Experiment/subject-2167018.csv","xpyriment","Interactive Ising","3.0.2","0","z","NA","NA","z","323","NA","NA","323","legacy","experiment","2167018","even","legacy","51080","NA","NA","NA","NA","449249","NA","NA","447721","448923","3270","449249","446211","446181","448923","3270","CogMod 2015 Experiment","106","32556","106","yes","1024"
"1","400","150","15","100","100","307","307","white","no","xpyriment","legacy","legacy","0","uniform","1","1","m","0","0","0","0","0","106","NA","NA","106","106","0","106","106","106","106","0","11/26/15 09:32:00","Default description","no","mono","no","18","black","Ok","768","legacy","G:/Kunstmatige Intelligentie/Master/Jaar1/Cognitive Modeling - Basic Principles and Methods/Experiment/subject-2167018.csv","xpyriment","Interactive Ising","3.0.2","0","m","NA","NA","m","297","NA","NA","297","legacy","experiment","2167018","even","legacy","51080","NA","NA","NA","NA","452426","NA","NA","451725","452127","3270","452426","450220","450169","452127","3270","CogMod 2015 Experiment","107","32853","107","yes","1024"
"1","800","150","15","100","100","307","307","white","no","xpyriment","legacy","legacy","0","uniform","1","1","m","0","0","0","0","0","107","NA","NA","107","107","0","107","107","107","107","0","11/26/15 09:32:00","Default description","no","mono","no","18","black","Ok","768","legacy","G:/Kunstmatige Intelligentie/Master/Jaar1/Cognitive Modeling - Basic Principles and Methods/Experiment/subject-2167018.csv","xpyriment","Interactive Ising","3.0.2","0","m","NA","NA","m","321","NA","NA","321","legacy","experiment","2167018","even","legacy","51080","NA","NA","NA","NA","455957","NA","NA","454832","455634","3270","455958","453325","453307","455633","3270","CogMod 2015 Experiment","108","33174","108","yes","1024"
"1","1200","-150","15","100","100","307","307","white","no","xpyriment","legacy","legacy","0","uniform","1","1","z","0","0","0","0","0","108","NA","NA","108","108","0","108","108","108","108","0","11/26/15 09:32:00","Default description","no","mono","no","18","black","Ok","768","legacy","G:/Kunstmatige Intelligentie/Master/Jaar1/Cognitive Modeling - Basic Principles and Methods/Experiment/subject-2167018.csv","xpyriment","Interactive Ising","3.0.2","0","z","NA","NA","z","289","NA","NA","289","legacy","experiment","2167018","even","legacy","51080","NA","NA","NA","NA","459873","NA","NA","458379","459581","3270","459873","456869","456847","459581","3270","CogMod 2015 Experiment","109","33463","109","yes","1024"
"1","400","150","15","100","100","307","307","white","no","xpyriment","legacy","legacy","0","uniform","1","1","m","0","0","0","0","0","109","NA","NA","109","109","0","109","109","109","109","0","11/26/15 09:32:00","Default description","no","mono","no","18","black","Ok","768","legacy","G:/Kunstmatige Intelligentie/Master/Jaar1/Cognitive Modeling - Basic Principles and Methods/Experiment/subject-2167018.csv","xpyriment","Interactive Ising","3.0.2","0","m","NA","NA","m","349","NA","NA","349","legacy","experiment","2167018","even","legacy","51080","NA","NA","NA","NA","463028","NA","NA","462274","462676","3270","463028","460763","460742","462676","3270","CogMod 2015 Experiment","110","33812","110","yes","1024"
"1","400","150","15","100","100","307","307","white","no","xpyriment","legacy","legacy","0","uniform","1","1","m","0","0","0","0","0","110","NA","NA","110","110","0","110","110","110","110","0","11/26/15 09:32:00","Default description","no","mono","no","18","black","Ok","768","legacy","G:/Kunstmatige Intelligentie/Master/Jaar1/Cognitive Modeling - Basic Principles and Methods/Experiment/subject-2167018.csv","xpyriment","Interactive Ising","3.0.2","0","m","NA","NA","m","323","NA","NA","323","legacy","experiment","2167018","even","legacy","51080","NA","NA","NA","NA","466195","NA","NA","465468","465870","3270","466195","463958","463938","465870","3270","CogMod 2015 Experiment","111","34135","111","yes","1024"
"1","800","-150","15","100","100","307","307","white","no","xpyriment","legacy","legacy","0","uniform","1","1","z","0","0","0","0","0","111","NA","NA","111","111","0","111","111","111","111","0","11/26/15 09:32:00","Default description","no","mono","no","18","black","Ok","768","legacy","G:/Kunstmatige Intelligentie/Master/Jaar1/Cognitive Modeling - Basic Principles and Methods/Experiment/subject-2167018.csv","xpyriment","Interactive Ising","3.0.2","0","z","NA","NA","z","304","NA","NA","304","legacy","experiment","2167018","even","legacy","51080","NA","NA","NA","NA","469716","NA","NA","468607","469410","3270","469716","467098","467076","469410","3270","CogMod 2015 Experiment","112","34439","112","yes","1024"
"1","1200","150","15","100","100","307","307","white","no","xpyriment","legacy","legacy","0","uniform","1","1","m","0","0","0","0","0","112","NA","NA","112","112","0","112","112","112","112","0","11/26/15 09:32:00","Default description","no","mono","no","18","black","Ok","768","legacy","G:/Kunstmatige Intelligentie/Master/Jaar1/Cognitive Modeling - Basic Principles and Methods/Experiment/subject-2167018.csv","xpyriment","Interactive Ising","3.0.2","0","m","NA","NA","m","306","NA","NA","306","legacy","experiment","2167018","even","legacy","51080","NA","NA","NA","NA","473627","NA","NA","472116","473318","3270","473627","470614","470588","473317","3270","CogMod 2015 Experiment","113","34745","113","yes","1024"
"1","1200","150","15","100","100","307","307","white","no","xpyriment","legacy","legacy","0","uniform","1","1","m","0","0","0","0","0","113","NA","NA","113","113","0","113","113","113","113","0","11/26/15 09:32:00","Default description","no","mono","no","18","black","Ok","768","legacy","G:/Kunstmatige Intelligentie/Master/Jaar1/Cognitive Modeling - Basic Principles and Methods/Experiment/subject-2167018.csv","xpyriment","Interactive Ising","3.0.2","0","m","NA","NA","m","317","NA","NA","317","legacy","experiment","2167018","even","legacy","51080","NA","NA","NA","NA","477601","NA","NA","476078","477281","3270","477601","474568","474537","477281","3270","CogMod 2015 Experiment","114","35062","114","yes","1024"
"1","1600","150","15","100","100","307","307","white","no","xpyriment","legacy","legacy","0","uniform","1","1","m","0","0","0","0","0","114","NA","NA","114","114","0","114","114","114","114","0","11/26/15 09:32:00","Default description","no","mono","no","18","black","Ok","768","legacy","G:/Kunstmatige Intelligentie/Master/Jaar1/Cognitive Modeling - Basic Principles and Methods/Experiment/subject-2167018.csv","xpyriment","Interactive Ising","3.0.2","0","m","NA","NA","m","313","NA","NA","313","legacy","experiment","2167018","even","legacy","51080","NA","NA","NA","NA","481968","NA","NA","480049","481652","3270","481968","478545","478511","481652","3270","CogMod 2015 Experiment","115","35375","115","yes","1024"
"1","1600","-150","15","100","100","307","307","white","no","xpyriment","legacy","legacy","0","uniform","1","1","z","0","0","0","0","0","115","NA","NA","115","115","0","115","115","115","115","0","11/26/15 09:32:00","Default description","no","mono","no","18","black","Ok","768","legacy","G:/Kunstmatige Intelligentie/Master/Jaar1/Cognitive Modeling - Basic Principles and Methods/Experiment/subject-2167018.csv","xpyriment","Interactive Ising","3.0.2","0","z","NA","NA","z","301","NA","NA","301","legacy","experiment","2167018","even","legacy","51080","NA","NA","NA","NA","486279","NA","NA","484372","485975","3270","486279","482868","482837","485975","3270","CogMod 2015 Experiment","116","35676","116","yes","1024"
"1","1600","-150","15","100","100","307","307","white","no","xpyriment","legacy","legacy","0","uniform","1","1","z","0","0","0","0","0","116","NA","NA","116","116","0","116","116","116","116","0","11/26/15 09:32:00","Default description","no","mono","no","18","black","Ok","768","legacy","G:/Kunstmatige Intelligentie/Master/Jaar1/Cognitive Modeling - Basic Principles and Methods/Experiment/subject-2167018.csv","xpyriment","Interactive Ising","3.0.2","0","z","NA","NA","z","253","NA","NA","253","legacy","experiment","2167018","even","legacy","51080","NA","NA","NA","NA","490549","NA","NA","488692","490294","3270","490549","487180","487149","490294","3270","CogMod 2015 Experiment","117","35929","117","yes","1024"
"1","1600","150","15","100","100","306","306","white","no","xpyriment","legacy","legacy","0","uniform","1","1","m","0","0","0","0","0","117","NA","NA","117","117","0","117","117","117","117","0","11/26/15 09:32:00","Default description","no","mono","no","18","black","Ok","768","legacy","G:/Kunstmatige Intelligentie/Master/Jaar1/Cognitive Modeling - Basic Principles and Methods/Experiment/subject-2167018.csv","xpyriment","Interactive Ising","3.0.2","0","m","NA","NA","m","268","NA","NA","268","legacy","experiment","2167018","even","legacy","51080","NA","NA","NA","NA","494842","NA","NA","492970","494572","3270","494842","491462","491430","494572","3270","CogMod 2015 Experiment","118","36197","118","yes","1024"
"1","1200","-150","15","100","100","306","306","white","no","xpyriment","legacy","legacy","0","uniform","1","1","z","0","0","0","0","0","118","NA","NA","118","118","0","118","118","118","118","0","11/26/15 09:32:00","Default description","no","mono","no","18","black","Ok","768","legacy","G:/Kunstmatige Intelligentie/Master/Jaar1/Cognitive Modeling - Basic Principles and Methods/Experiment/subject-2167018.csv","xpyriment","Interactive Ising","3.0.2","0","z","NA","NA","z","302","NA","NA","302","legacy","experiment","2167018","even","legacy","51080","NA","NA","NA","NA","498754","NA","NA","497247","498449","3270","498754","495743","495711","498448","3270","CogMod 2015 Experiment","119","36499","119","yes","1024"
"1","400","150","15","100","100","307","307","white","no","xpyriment","legacy","legacy","0","uniform","1","1","m","0","0","0","0","0","119","NA","NA","119","119","0","119","119","119","119","0","11/26/15 09:32:00","Default description","no","mono","no","18","black","Ok","768","legacy","G:/Kunstmatige Intelligentie/Master/Jaar1/Cognitive Modeling - Basic Principles and Methods/Experiment/subject-2167018.csv","xpyriment","Interactive Ising","3.0.2","0","m","NA","NA","m","345","NA","NA","345","legacy","experiment","2167018","even","legacy","51080","NA","NA","NA","NA","501922","NA","NA","501172","501574","3270","501922","499663","499625","501574","3270","CogMod 2015 Experiment","120","36844","120","yes","1024"
"2","1600","150","32","100","100","316","316","white","no","xpyriment","legacy","legacy","0","uniform","1","1","m","0","0","0","0","0","120","0","NA","120","120","0","120","120","120","120","0","11/26/15 09:32:00","Default description","no","mono","no","18","black","Ok","768","legacy","G:/Kunstmatige Intelligentie/Master/Jaar1/Cognitive Modeling - Basic Principles and Methods/Experiment/subject-2167018.csv","xpyriment","Interactive Ising","3.0.2","0","m","left alt","NA","m","316","9850","NA","316","legacy","experiment","2167018","even","legacy","51080","512688","NA","NA","NA","517027","502838","NA","515107","516709","3270","517027","513597","513563","516709","3270","CogMod 2015 Experiment","1","316","1","yes","1024"
"2","1200","150","16","100","100","305","305","white","no","xpyriment","legacy","legacy","0","uniform","1","1","m","0","0","0","0","0","121","0","NA","121","121","0","121","121","121","121","0","11/26/15 09:32:00","Default description","no","mono","no","18","black","Ok","768","legacy","G:/Kunstmatige Intelligentie/Master/Jaar1/Cognitive Modeling - Basic Principles and Methods/Experiment/subject-2167018.csv","xpyriment","Interactive Ising","3.0.2","0","m","left alt","NA","m","294","9850","NA","294","legacy","experiment","2167018","even","legacy","51080","512688","NA","NA","NA","521035","502838","NA","519536","520738","3270","521035","518027","518003","520738","3270","CogMod 2015 Experiment","2","610","2","yes","1024"
"2","1600","150","32","100","100","297","297","white","no","xpyriment","legacy","legacy","0","uniform","1","1","m","0","0","0","0","0","122","0","NA","122","122","0","122","122","122","122","0","11/26/15 09:32:00","Default description","no","mono","no","18","black","Ok","768","legacy","G:/Kunstmatige Intelligentie/Master/Jaar1/Cognitive Modeling - Basic Principles and Methods/Experiment/subject-2167018.csv","xpyriment","Interactive Ising","3.0.2","0","m","left alt","NA","m","281","9850","NA","281","legacy","experiment","2167018","even","legacy","51080","512688","NA","NA","NA","525356","502838","NA","523471","525073","3270","525356","521963","521938","525073","3270","CogMod 2015 Experiment","3","891","3","yes","1024"
"2","800","-150","8","100","100","290","290","white","no","xpyriment","legacy","legacy","0","uniform","1","1","z","0","0","0","0","0","123","0","NA","123","123","0","123","123","123","123","0","11/26/15 09:32:00","Default description","no","mono","no","18","black","Ok","768","legacy","G:/Kunstmatige Intelligentie/Master/Jaar1/Cognitive Modeling - Basic Principles and Methods/Experiment/subject-2167018.csv","xpyriment","Interactive Ising","3.0.2","0","z","left alt","NA","z","271","9850","NA","271","legacy","experiment","2167018","even","legacy","51080","512688","NA","NA","NA","528836","502838","NA","527760","528562","3270","528836","526251","526230","528562","3270","CogMod 2015 Experiment","4","1162","4","yes","1024"
"2","1200","150","16","100","100","287","287","white","no","xpyriment","legacy","legacy","0","uniform","1","1","m","0","0","0","0","0","124","0","NA","124","124","0","124","124","124","124","0","11/26/15 09:32:00","Default description","no","mono","no","18","black","Ok","768","legacy","G:/Kunstmatige Intelligentie/Master/Jaar1/Cognitive Modeling - Basic Principles and Methods/Experiment/subject-2167018.csv","xpyriment","Interactive Ising","3.0.2","0","m","left alt","NA","m","276","9850","NA","276","legacy","experiment","2167018","even","legacy","51080","512688","NA","NA","NA","532727","502838","NA","531245","532448","3270","532727","529738","529711","532447","3270","CogMod 2015 Experiment","5","1438","5","yes","1024"
"2","1600","-150","32","100","100","284","284","white","no","xpyriment","legacy","legacy","0","uniform","1","1","z","0","0","0","0","0","125","0","NA","125","125","0","125","125","125","125","0","11/26/15 09:32:00","Default description","no","mono","no","18","black","Ok","768","legacy","G:/Kunstmatige Intelligentie/Master/Jaar1/Cognitive Modeling - Basic Principles and Methods/Experiment/subject-2167018.csv","xpyriment","Interactive Ising","3.0.2","0","z","left alt","NA","z","270","9850","NA","270","legacy","experiment","2167018","even","legacy","51080","512688","NA","NA","NA","537020","502838","NA","535145","536748","3270","537020","533637","533603","536748","3270","CogMod 2015 Experiment","6","1708","6","yes","1024"
"2","1200","150","16","100","100","281","281","white","no","xpyriment","legacy","legacy","0","uniform","1","1","m","0","0","0","0","0","126","0","NA","126","126","0","126","126","126","126","0","11/26/15 09:32:00","Default description","no","mono","no","18","black","Ok","768","legacy","G:/Kunstmatige Intelligentie/Master/Jaar1/Cognitive Modeling - Basic Principles and Methods/Experiment/subject-2167018.csv","xpyriment","Interactive Ising","3.0.2","0","m","left alt","NA","m","264","9850","NA","264","legacy","experiment","2167018","even","legacy","51080","512688","NA","NA","NA","540905","502838","NA","539434","540638","3270","540905","537925","537895","540638","3270","CogMod 2015 Experiment","7","1972","7","yes","1024"
"2","1600","150","32","100","100","280","280","white","no","xpyriment","legacy","legacy","0","uniform","1","1","m","0","0","0","0","0","127","0","NA","127","127","0","127","127","127","127","0","11/26/15 09:32:00","Default description","no","mono","no","18","black","Ok","768","legacy","G:/Kunstmatige Intelligentie/Master/Jaar1/Cognitive Modeling - Basic Principles and Methods/Experiment/subject-2167018.csv","xpyriment","Interactive Ising","3.0.2","0","m","left alt","NA","m","272","9850","NA","272","legacy","experiment","2167018","even","legacy","51080","512688","NA","NA","NA","545347","502838","NA","543471","545073","3270","545347","541968","541915","545073","3270","CogMod 2015 Experiment","8","2244","8","yes","1024"
"2","1600","150","32","100","100","288","288","white","no","xpyriment","legacy","legacy","0","uniform","1","1","m","0","0","0","0","0","128","0","NA","128","128","0","128","128","128","128","0","11/26/15 09:32:00","Default description","no","mono","no","18","black","Ok","768","legacy","G:/Kunstmatige Intelligentie/Master/Jaar1/Cognitive Modeling - Basic Principles and Methods/Experiment/subject-2167018.csv","xpyriment","Interactive Ising","3.0.2","0","m","left alt","NA","m","354","9850","NA","354","legacy","experiment","2167018","even","legacy","51080","512688","NA","NA","NA","549681","502838","NA","547722","549324","3270","549681","546212","546193","549324","3270","CogMod 2015 Experiment","9","2598","9","yes","1024"
"2","400","150","4","100","100","292","292","white","no","xpyriment","legacy","legacy","0","uniform","1","1","m","0","0","0","0","0","129","0","NA","129","129","0","129","129","129","129","0","11/26/15 09:32:00","Default description","no","mono","no","18","black","Ok","768","legacy","G:/Kunstmatige Intelligentie/Master/Jaar1/Cognitive Modeling - Basic Principles and Methods/Experiment/subject-2167018.csv","xpyriment","Interactive Ising","3.0.2","0","m","left alt","NA","m","328","9850","NA","328","legacy","experiment","2167018","even","legacy","51080","512688","NA","NA","NA","552855","502838","NA","552122","552524","3270","552855","550612","550589","552524","3270","CogMod 2015 Experiment","10","2926","10","yes","1024"
"2","1600","150","32","100","100","292","292","white","no","xpyriment","legacy","legacy","0","uniform","1","1","m","0","0","0","0","0","130","0","NA","130","130","0","130","130","130","130","0","11/26/15 09:32:00","Default description","no","mono","no","18","black","Ok","768","legacy","G:/Kunstmatige Intelligentie/Master/Jaar1/Cognitive Modeling - Basic Principles and Methods/Experiment/subject-2167018.csv","xpyriment","Interactive Ising","3.0.2","0","m","left alt","NA","m","292","9850","NA","292","legacy","experiment","2167018","even","legacy","51080","512688","NA","NA","NA","557173","502838","NA","555276","556879","3270","557173","553766","553739","556879","3270","CogMod 2015 Experiment","11","3218","11","yes","1024"
"2","400","-150","4","100","100","294","294","white","no","xpyriment","legacy","legacy","0","uniform","1","1","z","0","0","0","0","0","131","0","NA","131","131","0","131","131","131","131","0","11/26/15 09:32:00","Default description","no","mono","no","18","black","Ok","768","legacy","G:/Kunstmatige Intelligentie/Master/Jaar1/Cognitive Modeling - Basic Principles and Methods/Experiment/subject-2167018.csv","xpyriment","Interactive Ising","3.0.2","0","z","left alt","NA","z","313","9850","NA","313","legacy","experiment","2167018","even","legacy","51080","512688","NA","NA","NA","560308","502838","NA","559591","559993","3270","560308","558084","558053","559993","3270","CogMod 2015 Experiment","12","3531","12","yes","1024"
"2","800","150","8","100","100","298","298","white","no","xpyriment","legacy","legacy","0","uniform","1","1","m","0","0","0","0","0","132","0","NA","132","132","0","132","132","132","132","0","11/26/15 09:32:00","Default description","no","mono","no","18","black","Ok","768","legacy","G:/Kunstmatige Intelligentie/Master/Jaar1/Cognitive Modeling - Basic Principles and Methods/Experiment/subject-2167018.csv","xpyriment","Interactive Ising","3.0.2","0","m","left alt","NA","m","349","9850","NA","349","legacy","experiment","2167018","even","legacy","51080","512688","NA","NA","NA","563887","502838","NA","562732","563535","3270","563887","561223","561192","563535","3270","CogMod 2015 Experiment","13","3880","13","yes","1024"
"2","1600","-150","32","100","100","299","299","white","no","xpyriment","legacy","legacy","0","uniform","1","1","z","0","0","0","0","0","133","0","NA","133","133","0","133","133","133","133","0","11/26/15 09:32:00","Default description","no","mono","no","18","black","Ok","768","legacy","G:/Kunstmatige Intelligentie/Master/Jaar1/Cognitive Modeling - Basic Principles and Methods/Experiment/subject-2167018.csv","xpyriment","Interactive Ising","3.0.2","0","z","left alt","NA","z","317","9850","NA","317","legacy","experiment","2167018","even","legacy","51080","512688","NA","NA","NA","568230","502838","NA","566308","567910","3270","568230","564800","564768","567910","3270","CogMod 2015 Experiment","14","4197","14","yes","1024"
"2","1600","-150","32","100","100","299","299","white","no","xpyriment","legacy","legacy","0","uniform","1","1","z","0","0","0","0","0","134","0","NA","134","134","0","134","134","134","134","0","11/26/15 09:32:00","Default description","no","mono","no","18","black","Ok","768","legacy","G:/Kunstmatige Intelligentie/Master/Jaar1/Cognitive Modeling - Basic Principles and Methods/Experiment/subject-2167018.csv","xpyriment","Interactive Ising","3.0.2","0","z","left alt","NA","z","301","9850","NA","301","legacy","experiment","2167018","even","legacy","51080","512688","NA","NA","NA","572533","502838","NA","570628","572230","3270","572533","569123","569094","572229","3270","CogMod 2015 Experiment","15","4498","15","yes","1024"
"2","1200","150","16","100","100","301","301","white","no","xpyriment","legacy","legacy","0","uniform","1","1","m","0","0","0","0","0","135","0","NA","135","135","0","135","135","135","135","0","11/26/15 09:32:00","Default description","no","mono","no","18","black","Ok","768","legacy","G:/Kunstmatige Intelligentie/Master/Jaar1/Cognitive Modeling - Basic Principles and Methods/Experiment/subject-2167018.csv","xpyriment","Interactive Ising","3.0.2","0","m","left alt","NA","m","324","9850","NA","324","legacy","experiment","2167018","even","legacy","51080","512688","NA","NA","NA","576474","502838","NA","574944","576147","3270","576474","573436","573414","576147","3270","CogMod 2015 Experiment","16","4822","16","yes","1024"
"2","1600","-150","32","100","100","299","299","white","no","xpyriment","legacy","legacy","0","uniform","1","1","z","0","0","0","0","0","136","0","NA","136","136","0","136","136","136","136","0","11/26/15 09:32:00","Default description","no","mono","no","18","black","Ok","768","legacy","G:/Kunstmatige Intelligentie/Master/Jaar1/Cognitive Modeling - Basic Principles and Methods/Experiment/subject-2167018.csv","xpyriment","Interactive Ising","3.0.2","0","z","left alt","NA","z","276","9850","NA","276","legacy","experiment","2167018","even","legacy","51080","512688","NA","NA","NA","580754","502838","NA","578874","580476","3270","580755","577370","577348","580476","3270","CogMod 2015 Experiment","17","5098","17","yes","1024"
"2","1200","-150","16","100","100","299","299","white","no","xpyriment","legacy","legacy","0","uniform","1","1","z","0","0","0","0","0","137","0","NA","137","137","0","137","137","137","137","0","11/26/15 09:32:00","Default description","no","mono","no","18","black","Ok","768","legacy","G:/Kunstmatige Intelligentie/Master/Jaar1/Cognitive Modeling - Basic Principles and Methods/Experiment/subject-2167018.csv","xpyriment","Interactive Ising","3.0.2","0","z","left alt","NA","z","294","9850","NA","294","legacy","experiment","2167018","even","legacy","51080","512688","NA","NA","NA","584662","502838","NA","583163","584365","3270","584662","581656","581631","584365","3270","CogMod 2015 Experiment","18","5392","18","yes","1024"
