"Block","Foreperiod","Location","NumRep","acc","accuracy","average_response_time","avg_rt","background","bidi","canvas_backend","clock_backend","color_backend","compensation","coordinates","correct","correct_GetResponse","correct_response","count_Block_1","count_Block_2","count_Block_3","count_Block_4","count_Block_5","count_ClearScreen","count_Feedback","count_Feedback_Final","count_Fixation","count_GetResponse","count_Instructions1","count_LogData","count_PreTrialWait","count_SingleTrial","count_Stimulus","count_experiment","datetime","description","font_bold","font_family","font_italic","font_size","foreground","form_response","height","keyboard_backend","logfile","mouse_backend","opensesame_codename","opensesame_version","repeat_cycle","response","response_Feedback","response_Feedback_Final","response_GetResponse","response_time","response_time_Feedback","response_time_Feedback_Final","response_time_GetResponse","sampler_backend","start","subject_nr","subject_parity","synth_backend","time_Block_1","time_Block_2","time_Block_3","time_Block_4","time_Block_5","time_ClearScreen","time_Feedback","time_Feedback_Final","time_Fixation","time_GetResponse","time_Instructions1","time_LogData","time_PreTrialWait","time_SingleTrial","time_Stimulus","time_experiment","title","total_correct","total_response_time","total_responses","uniform_coordinates","width"
"1","800","-150","15","100","100","450","450","white","no","xpyriment","legacy","legacy","0","uniform","1","1","z","0","0","0","0","0","0","NA","NA","0","0","0","0","0","0","0","0","11/29/15 16:00:11","Default description","no","mono","no","18","black","Ok","768","legacy","C:/Users/Martin/Desktop/Uni/Cognitive Modeling/Experiment/subject-2685329.csv","xpyriment","Interactive Ising","3.0.4","0","z","NA","NA","z","450","NA","NA","450","legacy","experiment","2685329","odd","legacy","57426","NA","NA","NA","NA","60676","NA","NA","59392","60209","1599","60676","57876","57861","60209","1599","CogMod 2015 Experiment","1","450","1","yes","1024"
"1","1200","150","15","100","100","271","271","white","no","xpyriment","legacy","legacy","0","uniform","1","1","m","0","0","0","0","0","1","NA","NA","1","1","0","1","1","1","1","0","11/29/15 16:00:11","Default description","no","mono","no","18","black","Ok","768","legacy","C:/Users/Martin/Desktop/Uni/Cognitive Modeling/Experiment/subject-2685329.csv","xpyriment","Interactive Ising","3.0.4","0","m","NA","NA","m","93","NA","NA","93","legacy","experiment","2685329","odd","legacy","57426","NA","NA","NA","NA","64009","NA","NA","62676","63892","1599","64009","61159","61135","63892","1599","CogMod 2015 Experiment","2","543","2","yes","1024"
"1","400","-150","15","100","100","276","276","white","no","xpyriment","legacy","legacy","0","uniform","1","1","z","0","0","0","0","0","2","NA","NA","2","2","0","2","2","2","2","0","11/29/15 16:00:11","Default description","no","mono","no","18","black","Ok","768","legacy","C:/Users/Martin/Desktop/Uni/Cognitive Modeling/Experiment/subject-2685329.csv","xpyriment","Interactive Ising","3.0.4","0","z","NA","NA","z","287","NA","NA","287","legacy","experiment","2685329","odd","legacy","57426","NA","NA","NA","NA","66709","NA","NA","65992","66410","1599","66709","64476","64453","66410","1599","CogMod 2015 Experiment","3","830","3","yes","1024"
"1","1600","-150","15","100","100","269","269","white","no","xpyriment","legacy","legacy","0","uniform","1","1","z","0","0","0","0","0","3","NA","NA","3","3","0","3","3","3","3","0","11/29/15 16:00:11","Default description","no","mono","no","18","black","Ok","768","legacy","C:/Users/Martin/Desktop/Uni/Cognitive Modeling/Experiment/subject-2685329.csv","xpyriment","Interactive Ising","3.0.4","0","z","NA","NA","z","246","NA","NA","246","legacy","experiment","2685329","odd","legacy","57426","NA","NA","NA","NA","70576","NA","NA","68692","70310","1599","70576","67176","67158","70310","1599","CogMod 2015 Experiment","4","1076","4","yes","1024"
"1","1200","150","15","100","100","263","263","white","no","xpyriment","legacy","legacy","0","uniform","1","1","m","0","0","0","0","0","4","NA","NA","4","4","0","4","4","4","4","0","11/29/15 16:00:11","Default description","no","mono","no","18","black","Ok","768","legacy","C:/Users/Martin/Desktop/Uni/Cognitive Modeling/Experiment/subject-2685329.csv","xpyriment","Interactive Ising","3.0.4","0","m","NA","NA","m","243","NA","NA","243","legacy","experiment","2685329","odd","legacy","57426","NA","NA","NA","NA","74026","NA","NA","72543","73760","1599","74026","71026","71011","73760","1599","CogMod 2015 Experiment","5","1319","5","yes","1024"
"1","800","-150","15","100","100","267","267","white","no","xpyriment","legacy","legacy","0","uniform","1","1","z","0","0","0","0","0","5","NA","NA","5","5","0","5","5","5","5","0","11/29/15 16:00:11","Default description","no","mono","no","18","black","Ok","768","legacy","C:/Users/Martin/Desktop/Uni/Cognitive Modeling/Experiment/subject-2685329.csv","xpyriment","Interactive Ising","3.0.4","0","z","NA","NA","z","284","NA","NA","284","legacy","experiment","2685329","odd","legacy","57426","NA","NA","NA","NA","77126","NA","NA","76009","76826","1599","77126","74493","74469","76826","1599","CogMod 2015 Experiment","6","1603","6","yes","1024"
"1","1600","-150","15","100","100","265","265","white","no","xpyriment","legacy","legacy","0","uniform","1","1","z","0","0","0","0","0","6","NA","NA","6","6","0","6","6","6","6","0","11/29/15 16:00:11","Default description","no","mono","no","18","black","Ok","768","legacy","C:/Users/Martin/Desktop/Uni/Cognitive Modeling/Experiment/subject-2685329.csv","xpyriment","Interactive Ising","3.0.4","0","z","NA","NA","z","252","NA","NA","252","legacy","experiment","2685329","odd","legacy","57426","NA","NA","NA","NA","80994","NA","NA","79110","80726","1599","80994","77593","77572","80726","1599","CogMod 2015 Experiment","7","1855","7","yes","1024"
"1","1200","150","15","100","100","268","268","white","no","xpyriment","legacy","legacy","0","uniform","1","1","m","0","0","0","0","0","7","NA","NA","7","7","0","7","7","7","7","0","11/29/15 16:00:11","Default description","no","mono","no","18","black","Ok","768","legacy","C:/Users/Martin/Desktop/Uni/Cognitive Modeling/Experiment/subject-2685329.csv","xpyriment","Interactive Ising","3.0.4","0","m","NA","NA","m","291","NA","NA","291","legacy","experiment","2685329","odd","legacy","57426","NA","NA","NA","NA","84493","NA","NA","82960","84177","1599","84493","81443","81429","84176","1599","CogMod 2015 Experiment","8","2146","8","yes","1024"
"1","400","150","15","100","100","275","275","white","no","xpyriment","legacy","legacy","0","uniform","1","1","m","0","0","0","0","0","8","NA","NA","8","8","0","8","8","8","8","0","11/29/15 16:00:11","Default description","no","mono","no","18","black","Ok","768","legacy","C:/Users/Martin/Desktop/Uni/Cognitive Modeling/Experiment/subject-2685329.csv","xpyriment","Interactive Ising","3.0.4","0","m","NA","NA","m","329","NA","NA","329","legacy","experiment","2685329","odd","legacy","57426","NA","NA","NA","NA","87243","NA","NA","86476","86894","1599","87244","84960","84940","86894","1599","CogMod 2015 Experiment","9","2475","9","yes","1024"
"1","1600","150","15","100","100","279","279","white","no","xpyriment","legacy","legacy","0","uniform","1","1","m","0","0","0","0","0","9","NA","NA","9","9","0","9","9","9","9","0","11/29/15 16:00:11","Default description","no","mono","no","18","black","Ok","768","legacy","C:/Users/Martin/Desktop/Uni/Cognitive Modeling/Experiment/subject-2685329.csv","xpyriment","Interactive Ising","3.0.4","0","m","NA","NA","m","322","NA","NA","322","legacy","experiment","2685329","odd","legacy","57426","NA","NA","NA","NA","91160","NA","NA","89210","90827","1599","91160","87693","87680","90827","1599","CogMod 2015 Experiment","10","2797","10","yes","1024"
"1","1200","150","15","100","100","280","280","white","no","xpyriment","legacy","legacy","0","uniform","1","1","m","0","0","0","0","0","10","NA","NA","10","10","0","10","10","10","10","0","11/29/15 16:00:11","Default description","no","mono","no","18","black","Ok","768","legacy","C:/Users/Martin/Desktop/Uni/Cognitive Modeling/Experiment/subject-2685329.csv","xpyriment","Interactive Ising","3.0.4","0","m","NA","NA","m","293","NA","NA","293","legacy","experiment","2685329","odd","legacy","57426","NA","NA","NA","NA","94677","NA","NA","93143","94360","1599","94677","91626","91611","94360","1599","CogMod 2015 Experiment","11","3090","11","yes","1024"
"1","400","150","15","100","100","292","292","white","no","xpyriment","legacy","legacy","0","uniform","1","1","m","0","0","0","0","0","11","NA","NA","11","11","0","11","11","11","11","0","11/29/15 16:00:11","Default description","no","mono","no","18","black","Ok","768","legacy","C:/Users/Martin/Desktop/Uni/Cognitive Modeling/Experiment/subject-2685329.csv","xpyriment","Interactive Ising","3.0.4","0","m","NA","NA","m","419","NA","NA","419","legacy","experiment","2685329","odd","legacy","57426","NA","NA","NA","NA","97494","NA","NA","96644","97060","1599","97494","95127","95115","97060","1599","CogMod 2015 Experiment","12","3509","12","yes","1024"
"1","1600","150","15","100","100","291","291","white","no","xpyriment","legacy","legacy","0","uniform","1","1","m","0","0","0","0","0","12","NA","NA","12","12","0","12","12","12","12","0","11/29/15 16:00:11","Default description","no","mono","no","18","black","Ok","768","legacy","C:/Users/Martin/Desktop/Uni/Cognitive Modeling/Experiment/subject-2685329.csv","xpyriment","Interactive Ising","3.0.4","0","m","NA","NA","m","280","NA","NA","280","legacy","experiment","2685329","odd","legacy","57426","NA","NA","NA","NA","101377","NA","NA","99460","101077","1599","101377","97944","97935","101077","1599","CogMod 2015 Experiment","13","3789","13","yes","1024"
"1","1600","150","15","100","100","290","290","white","no","xpyriment","legacy","legacy","0","uniform","1","1","m","0","0","0","0","0","13","NA","NA","13","13","0","13","13","13","13","0","11/29/15 16:00:11","Default description","no","mono","no","18","black","Ok","768","legacy","C:/Users/Martin/Desktop/Uni/Cognitive Modeling/Experiment/subject-2685329.csv","xpyriment","Interactive Ising","3.0.4","0","m","NA","NA","m","284","NA","NA","284","legacy","experiment","2685329","odd","legacy","57426","NA","NA","NA","NA","105277","NA","NA","103360","104978","1599","105277","101844","101823","104978","1599","CogMod 2015 Experiment","14","4073","14","yes","1024"
"1","800","-150","15","100","100","289","289","white","no","xpyriment","legacy","legacy","0","uniform","1","1","z","0","0","0","0","0","14","NA","NA","14","14","0","14","14","14","14","0","11/29/15 16:00:11","Default description","no","mono","no","18","black","Ok","768","legacy","C:/Users/Martin/Desktop/Uni/Cognitive Modeling/Experiment/subject-2685329.csv","xpyriment","Interactive Ising","3.0.4","0","z","NA","NA","z","269","NA","NA","269","legacy","experiment","2685329","odd","legacy","57426","NA","NA","NA","NA","108361","NA","NA","107261","108078","1599","108361","105744","105720","108078","1599","CogMod 2015 Experiment","15","4342","15","yes","1024"
"1","1600","150","15","100","100","289","289","white","no","xpyriment","legacy","legacy","0","uniform","1","1","m","0","0","0","0","0","15","NA","NA","15","15","0","15","15","15","15","0","11/29/15 16:00:11","Default description","no","mono","no","18","black","Ok","768","legacy","C:/Users/Martin/Desktop/Uni/Cognitive Modeling/Experiment/subject-2685329.csv","xpyriment","Interactive Ising","3.0.4","0","m","NA","NA","m","286","NA","NA","286","legacy","experiment","2685329","odd","legacy","57426","NA","NA","NA","NA","112244","NA","NA","110327","111944","1599","112244","108811","108797","111944","1599","CogMod 2015 Experiment","16","4628","16","yes","1024"
"1","1200","150","15","100","100","289","289","white","no","xpyriment","legacy","legacy","0","uniform","1","1","m","0","0","0","0","0","16","NA","NA","16","16","0","16","16","16","16","0","11/29/15 16:00:11","Default description","no","mono","no","18","black","Ok","768","legacy","C:/Users/Martin/Desktop/Uni/Cognitive Modeling/Experiment/subject-2685329.csv","xpyriment","Interactive Ising","3.0.4","0","m","NA","NA","m","297","NA","NA","297","legacy","experiment","2685329","odd","legacy","57426","NA","NA","NA","NA","115744","NA","NA","114211","115428","1599","115744","112694","112678","115428","1599","CogMod 2015 Experiment","17","4925","17","yes","1024"
"1","400","150","15","100","100","295","295","white","no","xpyriment","legacy","legacy","0","uniform","1","1","m","0","0","0","0","0","17","NA","NA","17","17","0","17","17","17","17","0","11/29/15 16:00:11","Default description","no","mono","no","18","black","Ok","768","legacy","C:/Users/Martin/Desktop/Uni/Cognitive Modeling/Experiment/subject-2685329.csv","xpyriment","Interactive Ising","3.0.4","0","m","NA","NA","m","393","NA","NA","393","legacy","experiment","2685329","odd","legacy","57426","NA","NA","NA","NA","118545","NA","NA","117711","118128","1599","118545","116195","116179","118128","1599","CogMod 2015 Experiment","18","5318","18","yes","1024"
"1","1200","150","15","100","100","295","295","white","no","xpyriment","legacy","legacy","0","uniform","1","1","m","0","0","0","0","0","18","NA","NA","18","18","0","18","18","18","18","0","11/29/15 16:00:11","Default description","no","mono","no","18","black","Ok","768","legacy","C:/Users/Martin/Desktop/Uni/Cognitive Modeling/Experiment/subject-2685329.csv","xpyriment","Interactive Ising","3.0.4","0","m","NA","NA","m","289","NA","NA","289","legacy","experiment","2685329","odd","legacy","57426","NA","NA","NA","NA","122028","NA","NA","120511","121728","1599","122028","118995","118984","121728","1599","CogMod 2015 Experiment","19","5607","19","yes","1024"
"1","800","-150","15","100","100","294","294","white","no","xpyriment","legacy","legacy","0","uniform","1","1","z","0","0","0","0","0","19","NA","NA","19","19","0","19","19","19","19","0","11/29/15 16:00:11","Default description","no","mono","no","18","black","Ok","768","legacy","C:/Users/Martin/Desktop/Uni/Cognitive Modeling/Experiment/subject-2685329.csv","xpyriment","Interactive Ising","3.0.4","0","z","NA","NA","z","284","NA","NA","284","legacy","experiment","2685329","odd","legacy","57426","NA","NA","NA","NA","125112","NA","NA","123995","124811","1599","125112","122478","122462","124811","1599","CogMod 2015 Experiment","20","5891","20","yes","1024"
"1","1200","150","15","100","100","295","295","white","no","xpyriment","legacy","legacy","0","uniform","1","1","m","0","0","0","0","0","20","NA","NA","20","20","0","20","20","20","20","0","11/29/15 16:00:11","Default description","no","mono","no","18","black","Ok","768","legacy","C:/Users/Martin/Desktop/Uni/Cognitive Modeling/Experiment/subject-2685329.csv","xpyriment","Interactive Ising","3.0.4","0","m","NA","NA","m","319","NA","NA","319","legacy","experiment","2685329","odd","legacy","57426","NA","NA","NA","NA","128628","NA","NA","127078","128295","1599","128628","125561","125550","128295","1599","CogMod 2015 Experiment","21","6210","21","yes","1024"
"1","1200","-150","15","100","100","296","296","white","no","xpyriment","legacy","legacy","0","uniform","1","1","z","0","0","0","0","0","21","NA","NA","21","21","0","21","21","21","21","0","11/29/15 16:00:11","Default description","no","mono","no","18","black","Ok","768","legacy","C:/Users/Martin/Desktop/Uni/Cognitive Modeling/Experiment/subject-2685329.csv","xpyriment","Interactive Ising","3.0.4","0","z","NA","NA","z","302","NA","NA","302","legacy","experiment","2685329","odd","legacy","57426","NA","NA","NA","NA","132128","NA","NA","130595","131812","1599","132128","129078","129066","131812","1599","CogMod 2015 Experiment","22","6512","22","yes","1024"
"1","1200","150","15","100","100","295","295","white","no","xpyriment","legacy","legacy","0","uniform","1","1","m","0","0","0","0","0","22","NA","NA","22","22","0","22","22","22","22","0","11/29/15 16:00:11","Default description","no","mono","no","18","black","Ok","768","legacy","C:/Users/Martin/Desktop/Uni/Cognitive Modeling/Experiment/subject-2685329.csv","xpyriment","Interactive Ising","3.0.4","0","m","NA","NA","m","287","NA","NA","287","legacy","experiment","2685329","odd","legacy","57426","NA","NA","NA","NA","135612","NA","NA","134095","135311","1599","135612","132579","132570","135311","1599","CogMod 2015 Experiment","23","6799","23","yes","1024"
"1","400","-150","15","100","100","296","296","white","no","xpyriment","legacy","legacy","0","uniform","1","1","z","0","0","0","0","0","23","NA","NA","23","23","0","23","23","23","23","0","11/29/15 16:00:11","Default description","no","mono","no","18","black","Ok","768","legacy","C:/Users/Martin/Desktop/Uni/Cognitive Modeling/Experiment/subject-2685329.csv","xpyriment","Interactive Ising","3.0.4","0","z","NA","NA","z","309","NA","NA","309","legacy","experiment","2685329","odd","legacy","57426","NA","NA","NA","NA","138328","NA","NA","137579","137995","1599","138328","136062","136052","137995","1599","CogMod 2015 Experiment","24","7108","24","yes","1024"
"1","1200","150","15","100","100","294","294","white","no","xpyriment","legacy","legacy","0","uniform","1","1","m","0","0","0","0","0","24","NA","NA","24","24","0","24","24","24","24","0","11/29/15 16:00:11","Default description","no","mono","no","18","black","Ok","768","legacy","C:/Users/Martin/Desktop/Uni/Cognitive Modeling/Experiment/subject-2685329.csv","xpyriment","Interactive Ising","3.0.4","0","m","NA","NA","m","266","NA","NA","266","legacy","experiment","2685329","odd","legacy","57426","NA","NA","NA","NA","141795","NA","NA","140295","141512","1599","141795","138778","138766","141512","1599","CogMod 2015 Experiment","25","7374","25","yes","1024"
"1","1600","-150","15","100","100","293","293","white","no","xpyriment","legacy","legacy","0","uniform","1","1","z","0","0","0","0","0","25","NA","NA","25","25","0","25","25","25","25","0","11/29/15 16:00:11","Default description","no","mono","no","18","black","Ok","768","legacy","C:/Users/Martin/Desktop/Uni/Cognitive Modeling/Experiment/subject-2685329.csv","xpyriment","Interactive Ising","3.0.4","0","z","NA","NA","z","262","NA","NA","262","legacy","experiment","2685329","odd","legacy","57426","NA","NA","NA","NA","145662","NA","NA","143762","145379","1599","145662","142245","142230","145379","1599","CogMod 2015 Experiment","26","7636","26","yes","1024"
"1","1600","150","15","100","100","292","292","white","no","xpyriment","legacy","legacy","0","uniform","1","1","m","0","0","0","0","0","26","NA","NA","26","26","0","26","26","26","26","0","11/29/15 16:00:11","Default description","no","mono","no","18","black","Ok","768","legacy","C:/Users/Martin/Desktop/Uni/Cognitive Modeling/Experiment/subject-2685329.csv","xpyriment","Interactive Ising","3.0.4","0","m","NA","NA","m","261","NA","NA","261","legacy","experiment","2685329","odd","legacy","57426","NA","NA","NA","NA","149546","NA","NA","147646","149262","1599","149546","146129","146109","149262","1599","CogMod 2015 Experiment","27","7897","27","yes","1024"
"1","400","-150","15","100","100","293","293","white","no","xpyriment","legacy","legacy","0","uniform","1","1","z","0","0","0","0","0","27","NA","NA","27","27","0","27","27","27","27","0","11/29/15 16:00:11","Default description","no","mono","no","18","black","Ok","768","legacy","C:/Users/Martin/Desktop/Uni/Cognitive Modeling/Experiment/subject-2685329.csv","xpyriment","Interactive Ising","3.0.4","0","z","NA","NA","z","315","NA","NA","315","legacy","experiment","2685329","odd","legacy","57426","NA","NA","NA","NA","152263","NA","NA","151512","151929","1599","152263","149995","149985","151929","1599","CogMod 2015 Experiment","28","8212","28","yes","1024"
"1","1200","-150","15","100","100","297","297","white","no","xpyriment","legacy","legacy","0","uniform","1","1","z","0","0","0","0","0","28","NA","NA","28","28","0","28","28","28","28","0","11/29/15 16:00:11","Default description","no","mono","no","18","black","Ok","768","legacy","C:/Users/Martin/Desktop/Uni/Cognitive Modeling/Experiment/subject-2685329.csv","xpyriment","Interactive Ising","3.0.4","0","z","NA","NA","z","428","NA","NA","428","legacy","experiment","2685329","odd","legacy","57426","NA","NA","NA","NA","155896","NA","NA","154229","155446","1599","155896","152712","152699","155446","1599","CogMod 2015 Experiment","29","8640","29","yes","1024"
"1","1200","-150","15","100","100","297","297","white","no","xpyriment","legacy","legacy","0","uniform","1","1","z","0","0","0","0","0","29","NA","NA","29","29","0","29","29","29","29","0","11/29/15 16:00:11","Default description","no","mono","no","18","black","Ok","768","legacy","C:/Users/Martin/Desktop/Uni/Cognitive Modeling/Experiment/subject-2685329.csv","xpyriment","Interactive Ising","3.0.4","0","z","NA","NA","z","271","NA","NA","271","legacy","experiment","2685329","odd","legacy","57426","NA","NA","NA","NA","159362","NA","NA","157862","159079","1599","159362","156345","156333","159079","1599","CogMod 2015 Experiment","30","8911","30","yes","1024"
"1","1600","-150","15","100","100","295","295","white","no","xpyriment","legacy","legacy","0","uniform","1","1","z","0","0","0","0","0","30","NA","NA","30","30","0","30","30","30","30","0","11/29/15 16:00:11","Default description","no","mono","no","18","black","Ok","768","legacy","C:/Users/Martin/Desktop/Uni/Cognitive Modeling/Experiment/subject-2685329.csv","xpyriment","Interactive Ising","3.0.4","0","z","NA","NA","z","258","NA","NA","258","legacy","experiment","2685329","odd","legacy","57426","NA","NA","NA","NA","163230","NA","NA","161329","162947","1599","163230","159813","159801","162946","1599","CogMod 2015 Experiment","31","9169","31","yes","1024"
"1","800","150","15","100","100","296","296","white","no","xpyriment","legacy","legacy","0","uniform","1","1","m","0","0","0","0","0","31","NA","NA","31","31","0","31","31","31","31","0","11/29/15 16:00:11","Default description","no","mono","no","18","black","Ok","768","legacy","C:/Users/Martin/Desktop/Uni/Cognitive Modeling/Experiment/subject-2685329.csv","xpyriment","Interactive Ising","3.0.4","0","m","NA","NA","m","303","NA","NA","303","legacy","experiment","2685329","odd","legacy","57426","NA","NA","NA","NA","166346","NA","NA","165213","166029","1599","166347","163696","163672","166029","1599","CogMod 2015 Experiment","32","9472","32","yes","1024"
"1","800","-150","15","100","100","295","295","white","no","xpyriment","legacy","legacy","0","uniform","1","1","z","0","0","0","0","0","32","NA","NA","32","32","0","32","32","32","32","0","11/29/15 16:00:11","Default description","no","mono","no","18","black","Ok","768","legacy","C:/Users/Martin/Desktop/Uni/Cognitive Modeling/Experiment/subject-2685329.csv","xpyriment","Interactive Ising","3.0.4","0","z","NA","NA","z","287","NA","NA","287","legacy","experiment","2685329","odd","legacy","57426","NA","NA","NA","NA","169430","NA","NA","168313","169130","1599","169430","166796","166785","169130","1599","CogMod 2015 Experiment","33","9759","33","yes","1024"
"1","400","150","15","100","100","296","296","white","no","xpyriment","legacy","legacy","0","uniform","1","1","m","0","0","0","0","0","33","NA","NA","33","33","0","33","33","33","33","0","11/29/15 16:00:11","Default description","no","mono","no","18","black","Ok","768","legacy","C:/Users/Martin/Desktop/Uni/Cognitive Modeling/Experiment/subject-2685329.csv","xpyriment","Interactive Ising","3.0.4","0","m","NA","NA","m","315","NA","NA","315","legacy","experiment","2685329","odd","legacy","57426","NA","NA","NA","NA","172179","NA","NA","171429","171846","1599","172179","169913","169891","171846","1599","CogMod 2015 Experiment","34","10074","34","yes","1024"
"1","1600","-150","15","100","100","295","295","white","no","xpyriment","legacy","legacy","0","uniform","1","1","z","0","0","0","0","0","34","NA","NA","34","34","0","34","34","34","34","0","11/29/15 16:00:11","Default description","no","mono","no","18","black","Ok","768","legacy","C:/Users/Martin/Desktop/Uni/Cognitive Modeling/Experiment/subject-2685329.csv","xpyriment","Interactive Ising","3.0.4","0","z","NA","NA","z","261","NA","NA","261","legacy","experiment","2685329","odd","legacy","57426","NA","NA","NA","NA","176064","NA","NA","174163","175780","1599","176064","172646","172627","175779","1599","CogMod 2015 Experiment","35","10335","35","yes","1024"
"1","1200","-150","15","100","100","295","295","white","no","xpyriment","legacy","legacy","0","uniform","1","1","z","0","0","0","0","0","35","NA","NA","35","35","0","35","35","35","35","0","11/29/15 16:00:11","Default description","no","mono","no","18","black","Ok","768","legacy","C:/Users/Martin/Desktop/Uni/Cognitive Modeling/Experiment/subject-2685329.csv","xpyriment","Interactive Ising","3.0.4","0","z","NA","NA","z","303","NA","NA","303","legacy","experiment","2685329","odd","legacy","57426","NA","NA","NA","NA","179579","NA","NA","178046","179263","1599","179580","176530","176506","179263","1599","CogMod 2015 Experiment","36","10638","36","yes","1024"
"1","800","150","15","100","100","297","297","white","no","xpyriment","legacy","legacy","0","uniform","1","1","m","0","0","0","0","0","36","NA","NA","36","36","0","36","36","36","36","0","11/29/15 16:00:11","Default description","no","mono","no","18","black","Ok","768","legacy","C:/Users/Martin/Desktop/Uni/Cognitive Modeling/Experiment/subject-2685329.csv","xpyriment","Interactive Ising","3.0.4","0","m","NA","NA","m","360","NA","NA","360","legacy","experiment","2685329","odd","legacy","57426","NA","NA","NA","NA","182764","NA","NA","181563","182381","1599","182764","180047","180024","182380","1599","CogMod 2015 Experiment","37","10998","37","yes","1024"
"1","1200","-150","15","100","100","296","296","white","no","xpyriment","legacy","legacy","0","uniform","1","1","z","0","0","0","0","0","37","NA","NA","37","37","0","37","37","37","37","0","11/29/15 16:00:11","Default description","no","mono","no","18","black","Ok","768","legacy","C:/Users/Martin/Desktop/Uni/Cognitive Modeling/Experiment/subject-2685329.csv","xpyriment","Interactive Ising","3.0.4","0","z","NA","NA","z","276","NA","NA","276","legacy","experiment","2685329","odd","legacy","57426","NA","NA","NA","NA","186247","NA","NA","184730","185947","1599","186247","183213","183204","185947","1599","CogMod 2015 Experiment","38","11274","38","yes","1024"
"1","400","-150","15","100","100","297","297","white","no","xpyriment","legacy","legacy","0","uniform","1","1","z","0","0","0","0","0","38","NA","NA","38","38","0","38","38","38","38","0","11/29/15 16:00:11","Default description","no","mono","no","18","black","Ok","768","legacy","C:/Users/Martin/Desktop/Uni/Cognitive Modeling/Experiment/subject-2685329.csv","xpyriment","Interactive Ising","3.0.4","0","z","NA","NA","z","315","NA","NA","315","legacy","experiment","2685329","odd","legacy","57426","NA","NA","NA","NA","188963","NA","NA","188214","188630","1599","188963","186697","186679","188630","1599","CogMod 2015 Experiment","39","11589","39","yes","1024"
"1","1200","-150","15","100","100","296","296","white","no","xpyriment","legacy","legacy","0","uniform","1","1","z","0","0","0","0","0","39","NA","NA","39","39","0","39","39","39","39","0","11/29/15 16:00:11","Default description","no","mono","no","18","black","Ok","768","legacy","C:/Users/Martin/Desktop/Uni/Cognitive Modeling/Experiment/subject-2685329.csv","xpyriment","Interactive Ising","3.0.4","0","z","NA","NA","z","285","NA","NA","285","legacy","experiment","2685329","odd","legacy","57426","NA","NA","NA","NA","192447","NA","NA","190930","192148","1599","192447","189414","189404","192147","1599","CogMod 2015 Experiment","40","11874","40","yes","1024"
"1","1200","-150","15","100","100","295","295","white","no","xpyriment","legacy","legacy","0","uniform","1","1","z","0","0","0","0","0","40","NA","NA","40","40","0","40","40","40","40","0","11/29/15 16:00:11","Default description","no","mono","no","18","black","Ok","768","legacy","C:/Users/Martin/Desktop/Uni/Cognitive Modeling/Experiment/subject-2685329.csv","xpyriment","Interactive Ising","3.0.4","0","z","NA","NA","z","237","NA","NA","237","legacy","experiment","2685329","odd","legacy","57426","NA","NA","NA","NA","195880","NA","NA","194413","195631","1599","195880","192897","192888","195630","1599","CogMod 2015 Experiment","41","12111","41","yes","1024"
"1","1600","-150","15","100","100","294","294","white","no","xpyriment","legacy","legacy","0","uniform","1","1","z","0","0","0","0","0","41","NA","NA","41","41","0","41","41","41","41","0","11/29/15 16:00:11","Default description","no","mono","no","18","black","Ok","768","legacy","C:/Users/Martin/Desktop/Uni/Cognitive Modeling/Experiment/subject-2685329.csv","xpyriment","Interactive Ising","3.0.4","0","z","NA","NA","z","275","NA","NA","275","legacy","experiment","2685329","odd","legacy","57426","NA","NA","NA","NA","199764","NA","NA","197848","199464","1599","199764","196331","196322","199464","1599","CogMod 2015 Experiment","42","12386","42","yes","1024"
"1","800","150","15","100","100","296","296","white","no","xpyriment","legacy","legacy","0","uniform","1","1","m","0","0","0","0","0","42","NA","NA","42","42","0","42","42","42","42","0","11/29/15 16:00:11","Default description","no","mono","no","18","black","Ok","768","legacy","C:/Users/Martin/Desktop/Uni/Cognitive Modeling/Experiment/subject-2685329.csv","xpyriment","Interactive Ising","3.0.4","0","m","NA","NA","m","377","NA","NA","377","legacy","experiment","2685329","odd","legacy","57426","NA","NA","NA","NA","202947","NA","NA","201731","202548","1599","202947","200214","200203","202547","1599","CogMod 2015 Experiment","43","12763","43","yes","1024"
"1","1200","150","15","100","100","297","297","white","no","xpyriment","legacy","legacy","0","uniform","1","1","m","0","0","0","0","0","43","NA","NA","43","43","0","43","43","43","43","0","11/29/15 16:00:11","Default description","no","mono","no","18","black","Ok","768","legacy","C:/Users/Martin/Desktop/Uni/Cognitive Modeling/Experiment/subject-2685329.csv","xpyriment","Interactive Ising","3.0.4","0","m","NA","NA","m","335","NA","NA","335","legacy","experiment","2685329","odd","legacy","57426","NA","NA","NA","NA","206480","NA","NA","204914","206131","1599","206480","203397","203387","206131","1599","CogMod 2015 Experiment","44","13098","44","yes","1024"
"1","800","-150","15","100","100","298","298","white","no","xpyriment","legacy","legacy","0","uniform","1","1","z","0","0","0","0","0","44","NA","NA","44","44","0","44","44","44","44","0","11/29/15 16:00:11","Default description","no","mono","no","18","black","Ok","768","legacy","C:/Users/Martin/Desktop/Uni/Cognitive Modeling/Experiment/subject-2685329.csv","xpyriment","Interactive Ising","3.0.4","0","z","NA","NA","z","353","NA","NA","353","legacy","experiment","2685329","odd","legacy","57426","NA","NA","NA","NA","209631","NA","NA","208447","209265","1599","209631","206931","206921","209265","1599","CogMod 2015 Experiment","45","13451","45","yes","1024"
"1","1600","150","15","100","100","298","298","white","no","xpyriment","legacy","legacy","0","uniform","1","1","m","0","0","0","0","0","45","NA","NA","45","45","0","45","45","45","45","0","11/29/15 16:00:11","Default description","no","mono","no","18","black","Ok","768","legacy","C:/Users/Martin/Desktop/Uni/Cognitive Modeling/Experiment/subject-2685329.csv","xpyriment","Interactive Ising","3.0.4","0","m","NA","NA","m","258","NA","NA","258","legacy","experiment","2685329","odd","legacy","57426","NA","NA","NA","NA","213481","NA","NA","211598","213214","1599","213481","210081","210071","213214","1599","CogMod 2015 Experiment","46","13709","46","yes","1024"
"1","400","-150","15","100","100","299","299","white","no","xpyriment","legacy","legacy","0","uniform","1","1","z","0","0","0","0","0","46","NA","NA","46","46","0","46","46","46","46","0","11/29/15 16:00:11","Default description","no","mono","no","18","black","Ok","768","legacy","C:/Users/Martin/Desktop/Uni/Cognitive Modeling/Experiment/subject-2685329.csv","xpyriment","Interactive Ising","3.0.4","0","z","NA","NA","z","358","NA","NA","358","legacy","experiment","2685329","odd","legacy","57426","NA","NA","NA","NA","216231","NA","NA","215448","215864","1599","216231","213931","213921","215864","1599","CogMod 2015 Experiment","47","14067","47","yes","1024"
"1","1600","150","15","100","100","300","300","white","no","xpyriment","legacy","legacy","0","uniform","1","1","m","0","0","0","0","0","47","NA","NA","47","47","0","47","47","47","47","0","11/29/15 16:00:11","Default description","no","mono","no","18","black","Ok","768","legacy","C:/Users/Martin/Desktop/Uni/Cognitive Modeling/Experiment/subject-2685329.csv","xpyriment","Interactive Ising","3.0.4","0","m","NA","NA","m","363","NA","NA","363","legacy","experiment","2685329","odd","legacy","57426","NA","NA","NA","NA","220198","NA","NA","218198","219815","1599","220198","216681","216671","219814","1599","CogMod 2015 Experiment","48","14430","48","yes","1024"
"1","400","150","15","100","100","305","305","white","no","xpyriment","legacy","legacy","0","uniform","1","1","m","0","0","0","0","0","48","NA","NA","48","48","0","48","48","48","48","0","11/29/15 16:00:11","Default description","no","mono","no","18","black","Ok","768","legacy","C:/Users/Martin/Desktop/Uni/Cognitive Modeling/Experiment/subject-2685329.csv","xpyriment","Interactive Ising","3.0.4","0","m","NA","NA","m","521","NA","NA","521","legacy","experiment","2685329","odd","legacy","57426","NA","NA","NA","NA","223114","NA","NA","222165","222582","1599","223115","220648","220635","222581","1599","CogMod 2015 Experiment","49","14951","49","yes","1024"
"1","1200","-150","15","100","100","305","305","white","no","xpyriment","legacy","legacy","0","uniform","1","1","z","0","0","0","0","0","49","NA","NA","49","49","0","49","49","49","49","0","11/29/15 16:00:11","Default description","no","mono","no","18","black","Ok","768","legacy","C:/Users/Martin/Desktop/Uni/Cognitive Modeling/Experiment/subject-2685329.csv","xpyriment","Interactive Ising","3.0.4","0","z","NA","NA","z","327","NA","NA","327","legacy","experiment","2685329","odd","legacy","57426","NA","NA","NA","NA","226665","NA","NA","225098","226315","1599","226665","223581","223560","226315","1599","CogMod 2015 Experiment","50","15278","50","yes","1024"
"1","400","150","15","100","100","306","306","white","no","xpyriment","legacy","legacy","0","uniform","1","1","m","0","0","0","0","0","50","NA","NA","50","50","0","50","50","50","50","0","11/29/15 16:00:11","Default description","no","mono","no","18","black","Ok","768","legacy","C:/Users/Martin/Desktop/Uni/Cognitive Modeling/Experiment/subject-2685329.csv","xpyriment","Interactive Ising","3.0.4","0","m","NA","NA","m","374","NA","NA","374","legacy","experiment","2685329","odd","legacy","57426","NA","NA","NA","NA","229432","NA","NA","228632","229049","1599","229432","227114","227101","229049","1599","CogMod 2015 Experiment","51","15652","51","yes","1024"
"1","1600","150","15","100","100","307","307","white","no","xpyriment","legacy","legacy","0","uniform","1","1","m","0","0","0","0","0","51","NA","NA","51","51","0","51","51","51","51","0","11/29/15 16:00:11","Default description","no","mono","no","18","black","Ok","768","legacy","C:/Users/Martin/Desktop/Uni/Cognitive Modeling/Experiment/subject-2685329.csv","xpyriment","Interactive Ising","3.0.4","0","m","NA","NA","m","337","NA","NA","337","legacy","experiment","2685329","odd","legacy","57426","NA","NA","NA","NA","233381","NA","NA","231415","233032","1599","233381","229898","229877","233032","1599","CogMod 2015 Experiment","52","15989","52","yes","1024"
"1","400","150","15","100","100","313","313","white","no","xpyriment","legacy","legacy","0","uniform","1","1","m","0","0","0","0","0","52","NA","NA","52","52","0","52","52","52","52","0","11/29/15 16:00:11","Default description","no","mono","no","18","black","Ok","768","legacy","C:/Users/Martin/Desktop/Uni/Cognitive Modeling/Experiment/subject-2685329.csv","xpyriment","Interactive Ising","3.0.4","0","m","NA","NA","m","606","NA","NA","606","legacy","experiment","2685329","odd","legacy","57426","NA","NA","NA","NA","236382","NA","NA","235348","235765","1599","236382","233832","233821","235765","1599","CogMod 2015 Experiment","53","16595","53","yes","1024"
"1","1200","-150","15","100","100","312","312","white","no","xpyriment","legacy","legacy","0","uniform","1","1","z","0","0","0","0","0","53","NA","NA","53","53","0","53","53","53","53","0","11/29/15 16:00:11","Default description","no","mono","no","18","black","Ok","768","legacy","C:/Users/Martin/Desktop/Uni/Cognitive Modeling/Experiment/subject-2685329.csv","xpyriment","Interactive Ising","3.0.4","0","z","NA","NA","z","293","NA","NA","293","legacy","experiment","2685329","odd","legacy","57426","NA","NA","NA","NA","239883","NA","NA","238348","239566","1599","239883","236832","236820","239566","1599","CogMod 2015 Experiment","54","16888","54","yes","1024"
"1","400","-150","15","100","100","313","313","white","no","xpyriment","legacy","legacy","0","uniform","1","1","z","0","0","0","0","0","54","NA","NA","54","54","0","54","54","54","54","0","11/29/15 16:00:11","Default description","no","mono","no","18","black","Ok","768","legacy","C:/Users/Martin/Desktop/Uni/Cognitive Modeling/Experiment/subject-2685329.csv","xpyriment","Interactive Ising","3.0.4","0","z","NA","NA","z","366","NA","NA","366","legacy","experiment","2685329","odd","legacy","57426","NA","NA","NA","NA","242649","NA","NA","241849","242266","1599","242649","240332","240323","242266","1599","CogMod 2015 Experiment","55","17254","55","yes","1024"
"1","1200","-150","15","100","100","313","313","white","no","xpyriment","legacy","legacy","0","uniform","1","1","z","0","0","0","0","0","55","NA","NA","55","55","0","55","55","55","55","0","11/29/15 16:00:11","Default description","no","mono","no","18","black","Ok","768","legacy","C:/Users/Martin/Desktop/Uni/Cognitive Modeling/Experiment/subject-2685329.csv","xpyriment","Interactive Ising","3.0.4","0","z","NA","NA","z","322","NA","NA","322","legacy","experiment","2685329","odd","legacy","57426","NA","NA","NA","NA","246182","NA","NA","244632","245849","1599","246182","243115","243092","245849","1599","CogMod 2015 Experiment","56","17576","56","yes","1024"
"1","400","150","15","100","100","314","314","white","no","xpyriment","legacy","legacy","0","uniform","1","1","m","0","0","0","0","0","56","NA","NA","56","56","0","56","56","56","56","0","11/29/15 16:00:11","Default description","no","mono","no","18","black","Ok","768","legacy","C:/Users/Martin/Desktop/Uni/Cognitive Modeling/Experiment/subject-2685329.csv","xpyriment","Interactive Ising","3.0.4","0","m","NA","NA","m","358","NA","NA","358","legacy","experiment","2685329","odd","legacy","57426","NA","NA","NA","NA","248966","NA","NA","248183","248599","1599","248966","246666","246649","248599","1599","CogMod 2015 Experiment","57","17934","57","yes","1024"
"1","800","150","15","100","100","314","314","white","no","xpyriment","legacy","legacy","0","uniform","1","1","m","0","0","0","0","0","57","NA","NA","57","57","0","57","57","57","57","0","11/29/15 16:00:11","Default description","no","mono","no","18","black","Ok","768","legacy","C:/Users/Martin/Desktop/Uni/Cognitive Modeling/Experiment/subject-2685329.csv","xpyriment","Interactive Ising","3.0.4","0","m","NA","NA","m","326","NA","NA","326","legacy","experiment","2685329","odd","legacy","57426","NA","NA","NA","NA","252099","NA","NA","250933","251749","1599","252099","249415","249403","251749","1599","CogMod 2015 Experiment","58","18260","58","yes","1024"
"1","1200","150","15","100","100","315","315","white","no","xpyriment","legacy","legacy","0","uniform","1","1","m","0","0","0","0","0","58","NA","NA","58","58","0","58","58","58","58","0","11/29/15 16:00:11","Default description","no","mono","no","18","black","Ok","768","legacy","C:/Users/Martin/Desktop/Uni/Cognitive Modeling/Experiment/subject-2685329.csv","xpyriment","Interactive Ising","3.0.4","0","m","NA","NA","m","327","NA","NA","327","legacy","experiment","2685329","odd","legacy","57426","NA","NA","NA","NA","255633","NA","NA","254066","255283","1599","255633","252549","252539","255282","1599","CogMod 2015 Experiment","59","18587","59","yes","1024"
"1","800","150","15","100","100","317","317","white","no","xpyriment","legacy","legacy","0","uniform","1","1","m","0","0","0","0","0","59","NA","NA","59","59","0","59","59","59","59","0","11/29/15 16:00:11","Default description","no","mono","no","18","black","Ok","768","legacy","C:/Users/Martin/Desktop/Uni/Cognitive Modeling/Experiment/subject-2685329.csv","xpyriment","Interactive Ising","3.0.4","0","m","NA","NA","m","458","NA","NA","458","legacy","experiment","2685329","odd","legacy","57426","NA","NA","NA","NA","258882","NA","NA","257599","258416","1599","258882","256083","256073","258416","1599","CogMod 2015 Experiment","60","19045","60","yes","1024"
"1","400","-150","15","100","100","317","317","white","no","xpyriment","legacy","legacy","0","uniform","1","1","z","0","0","0","0","0","60","NA","NA","60","60","0","60","60","60","60","0","11/29/15 16:00:11","Default description","no","mono","no","18","black","Ok","768","legacy","C:/Users/Martin/Desktop/Uni/Cognitive Modeling/Experiment/subject-2685329.csv","xpyriment","Interactive Ising","3.0.4","0","z","NA","NA","z","331","NA","NA","331","legacy","experiment","2685329","odd","legacy","57426","NA","NA","NA","NA","261616","NA","NA","260849","261266","1599","261616","259333","259323","261266","1599","CogMod 2015 Experiment","61","19376","61","yes","1024"
"1","1600","-150","15","100","100","316","316","white","no","xpyriment","legacy","legacy","0","uniform","1","1","z","0","0","0","0","0","61","NA","NA","61","61","0","61","61","61","61","0","11/29/15 16:00:11","Default description","no","mono","no","18","black","Ok","768","legacy","C:/Users/Martin/Desktop/Uni/Cognitive Modeling/Experiment/subject-2685329.csv","xpyriment","Interactive Ising","3.0.4","0","z","NA","NA","z","257","NA","NA","257","legacy","experiment","2685329","odd","legacy","57426","NA","NA","NA","NA","265483","NA","NA","263599","265217","1599","265483","262083","262059","265217","1599","CogMod 2015 Experiment","62","19633","62","yes","1024"
"1","1200","150","15","100","100","316","316","white","no","xpyriment","legacy","legacy","0","uniform","1","1","m","0","0","0","0","0","62","NA","NA","62","62","0","62","62","62","62","0","11/29/15 16:00:11","Default description","no","mono","no","18","black","Ok","768","legacy","C:/Users/Martin/Desktop/Uni/Cognitive Modeling/Experiment/subject-2685329.csv","xpyriment","Interactive Ising","3.0.4","0","m","NA","NA","m","321","NA","NA","321","legacy","experiment","2685329","odd","legacy","57426","NA","NA","NA","NA","269000","NA","NA","267449","268666","1599","269000","265933","265923","268666","1599","CogMod 2015 Experiment","63","19954","63","yes","1024"
"1","400","-150","15","100","100","316","316","white","no","xpyriment","legacy","legacy","0","uniform","1","1","z","0","0","0","0","0","63","NA","NA","63","63","0","63","63","63","63","0","11/29/15 16:00:11","Default description","no","mono","no","18","black","Ok","768","legacy","C:/Users/Martin/Desktop/Uni/Cognitive Modeling/Experiment/subject-2685329.csv","xpyriment","Interactive Ising","3.0.4","0","z","NA","NA","z","292","NA","NA","292","legacy","experiment","2685329","odd","legacy","57426","NA","NA","NA","NA","271683","NA","NA","270967","271383","1599","271684","269450","269439","271383","1599","CogMod 2015 Experiment","64","20246","64","yes","1024"
"1","800","150","15","100","100","316","316","white","no","xpyriment","legacy","legacy","0","uniform","1","1","m","0","0","0","0","0","64","NA","NA","64","64","0","64","64","64","64","0","11/29/15 16:00:11","Default description","no","mono","no","18","black","Ok","768","legacy","C:/Users/Martin/Desktop/Uni/Cognitive Modeling/Experiment/subject-2685329.csv","xpyriment","Interactive Ising","3.0.4","0","m","NA","NA","m","300","NA","NA","300","legacy","experiment","2685329","odd","legacy","57426","NA","NA","NA","NA","274800","NA","NA","273666","274483","1599","274800","272150","272125","274483","1599","CogMod 2015 Experiment","65","20546","65","yes","1024"
"1","400","150","15","100","100","316","316","white","no","xpyriment","legacy","legacy","0","uniform","1","1","m","0","0","0","0","0","65","NA","NA","65","65","0","65","65","65","65","0","11/29/15 16:00:11","Default description","no","mono","no","18","black","Ok","768","legacy","C:/Users/Martin/Desktop/Uni/Cognitive Modeling/Experiment/subject-2685329.csv","xpyriment","Interactive Ising","3.0.4","0","m","NA","NA","m","333","NA","NA","333","legacy","experiment","2685329","odd","legacy","57426","NA","NA","NA","NA","277533","NA","NA","276766","277183","1599","277533","275250","275238","277183","1599","CogMod 2015 Experiment","66","20879","66","yes","1024"
"1","1600","-150","15","100","100","315","315","white","no","xpyriment","legacy","legacy","0","uniform","1","1","z","0","0","0","0","0","66","NA","NA","66","66","0","66","66","66","66","0","11/29/15 16:00:11","Default description","no","mono","no","18","black","Ok","768","legacy","C:/Users/Martin/Desktop/Uni/Cognitive Modeling/Experiment/subject-2685329.csv","xpyriment","Interactive Ising","3.0.4","0","z","NA","NA","z","264","NA","NA","264","legacy","experiment","2685329","odd","legacy","57426","NA","NA","NA","NA","281416","NA","NA","279517","281133","1599","281416","278000","277979","281133","1599","CogMod 2015 Experiment","67","21143","67","yes","1024"
"1","400","150","15","100","100","317","317","white","no","xpyriment","legacy","legacy","0","uniform","1","1","m","0","0","0","0","0","67","NA","NA","67","67","0","67","67","67","67","0","11/29/15 16:00:11","Default description","no","mono","no","18","black","Ok","768","legacy","C:/Users/Martin/Desktop/Uni/Cognitive Modeling/Experiment/subject-2685329.csv","xpyriment","Interactive Ising","3.0.4","0","m","NA","NA","m","441","NA","NA","441","legacy","experiment","2685329","odd","legacy","57426","NA","NA","NA","NA","284250","NA","NA","283383","283800","1599","284250","281867","281855","283800","1599","CogMod 2015 Experiment","68","21584","68","yes","1024"
"1","800","150","15","100","100","317","317","white","no","xpyriment","legacy","legacy","0","uniform","1","1","m","0","0","0","0","0","68","NA","NA","68","68","0","68","68","68","68","0","11/29/15 16:00:11","Default description","no","mono","no","18","black","Ok","768","legacy","C:/Users/Martin/Desktop/Uni/Cognitive Modeling/Experiment/subject-2685329.csv","xpyriment","Interactive Ising","3.0.4","0","m","NA","NA","m","295","NA","NA","295","legacy","experiment","2685329","odd","legacy","57426","NA","NA","NA","NA","287367","NA","NA","286234","287050","1599","287367","284717","284693","287050","1599","CogMod 2015 Experiment","69","21879","69","yes","1024"
"1","400","150","15","100","100","317","317","white","no","xpyriment","legacy","legacy","0","uniform","1","1","m","0","0","0","0","0","69","NA","NA","69","69","0","69","69","69","69","0","11/29/15 16:00:11","Default description","no","mono","no","18","black","Ok","768","legacy","C:/Users/Martin/Desktop/Uni/Cognitive Modeling/Experiment/subject-2685329.csv","xpyriment","Interactive Ising","3.0.4","0","m","NA","NA","m","327","NA","NA","327","legacy","experiment","2685329","odd","legacy","57426","NA","NA","NA","NA","290100","NA","NA","289334","289750","1599","290100","287817","287804","289750","1599","CogMod 2015 Experiment","70","22206","70","yes","1024"
"1","800","-150","15","100","100","317","317","white","no","xpyriment","legacy","legacy","0","uniform","1","1","z","0","0","0","0","0","70","NA","NA","70","70","0","70","70","70","70","0","11/29/15 16:00:11","Default description","no","mono","no","18","black","Ok","768","legacy","C:/Users/Martin/Desktop/Uni/Cognitive Modeling/Experiment/subject-2685329.csv","xpyriment","Interactive Ising","3.0.4","0","z","NA","NA","z","328","NA","NA","328","legacy","experiment","2685329","odd","legacy","57426","NA","NA","NA","NA","293234","NA","NA","292067","292884","1599","293234","290551","290538","292884","1599","CogMod 2015 Experiment","71","22534","71","yes","1024"
"1","1600","-150","15","100","100","316","316","white","no","xpyriment","legacy","legacy","0","uniform","1","1","z","0","0","0","0","0","71","NA","NA","71","71","0","71","71","71","71","0","11/29/15 16:00:11","Default description","no","mono","no","18","black","Ok","768","legacy","C:/Users/Martin/Desktop/Uni/Cognitive Modeling/Experiment/subject-2685329.csv","xpyriment","Interactive Ising","3.0.4","0","z","NA","NA","z","280","NA","NA","280","legacy","experiment","2685329","odd","legacy","57426","NA","NA","NA","NA","297117","NA","NA","295201","296818","1599","297117","293684","293673","296817","1599","CogMod 2015 Experiment","72","22814","72","yes","1024"
"1","1200","150","15","100","100","316","316","white","no","xpyriment","legacy","legacy","0","uniform","1","1","m","0","0","0","0","0","72","NA","NA","72","72","0","72","72","72","72","0","11/29/15 16:00:11","Default description","no","mono","no","18","black","Ok","768","legacy","C:/Users/Martin/Desktop/Uni/Cognitive Modeling/Experiment/subject-2685329.csv","xpyriment","Interactive Ising","3.0.4","0","m","NA","NA","m","274","NA","NA","274","legacy","experiment","2685329","odd","legacy","57426","NA","NA","NA","NA","300584","NA","NA","299084","300300","1599","300585","297567","297555","300300","1599","CogMod 2015 Experiment","73","23088","73","yes","1024"
"1","400","-150","15","100","100","316","316","white","no","xpyriment","legacy","legacy","0","uniform","1","1","z","0","0","0","0","0","73","NA","NA","73","73","0","73","73","73","73","0","11/29/15 16:00:11","Default description","no","mono","no","18","black","Ok","768","legacy","C:/Users/Martin/Desktop/Uni/Cognitive Modeling/Experiment/subject-2685329.csv","xpyriment","Interactive Ising","3.0.4","0","z","NA","NA","z","310","NA","NA","310","legacy","experiment","2685329","odd","legacy","57426","NA","NA","NA","NA","303301","NA","NA","302550","302967","1599","303301","301034","301021","302967","1599","CogMod 2015 Experiment","74","23398","74","yes","1024"
"1","800","-150","15","100","100","315","315","white","no","xpyriment","legacy","legacy","0","uniform","1","1","z","0","0","0","0","0","74","NA","NA","74","74","0","74","74","74","74","0","11/29/15 16:00:11","Default description","no","mono","no","18","black","Ok","768","legacy","C:/Users/Martin/Desktop/Uni/Cognitive Modeling/Experiment/subject-2685329.csv","xpyriment","Interactive Ising","3.0.4","0","z","NA","NA","z","291","NA","NA","291","legacy","experiment","2685329","odd","legacy","57426","NA","NA","NA","NA","306401","NA","NA","305284","306101","1599","306401","303768","303754","306101","1599","CogMod 2015 Experiment","75","23689","75","yes","1024"
"1","400","-150","15","100","100","315","315","white","no","xpyriment","legacy","legacy","0","uniform","1","1","z","0","0","0","0","0","75","NA","NA","75","75","0","75","75","75","75","0","11/29/15 16:00:11","Default description","no","mono","no","18","black","Ok","768","legacy","C:/Users/Martin/Desktop/Uni/Cognitive Modeling/Experiment/subject-2685329.csv","xpyriment","Interactive Ising","3.0.4","0","z","NA","NA","z","286","NA","NA","286","legacy","experiment","2685329","odd","legacy","57426","NA","NA","NA","NA","309101","NA","NA","308384","308802","1599","309101","306868","306844","308801","1599","CogMod 2015 Experiment","76","23975","76","yes","1024"
"1","400","-150","15","100","100","315","315","white","no","xpyriment","legacy","legacy","0","uniform","1","1","z","0","0","0","0","0","76","NA","NA","76","76","0","76","76","76","76","0","11/29/15 16:00:11","Default description","no","mono","no","18","black","Ok","768","legacy","C:/Users/Martin/Desktop/Uni/Cognitive Modeling/Experiment/subject-2685329.csv","xpyriment","Interactive Ising","3.0.4","0","z","NA","NA","z","288","NA","NA","288","legacy","experiment","2685329","odd","legacy","57426","NA","NA","NA","NA","311801","NA","NA","311084","311501","1599","311801","309567","309547","311501","1599","CogMod 2015 Experiment","77","24263","77","yes","1024"
"1","1200","-150","15","100","100","314","314","white","no","xpyriment","legacy","legacy","0","uniform","1","1","z","0","0","0","0","0","77","NA","NA","77","77","0","77","77","77","77","0","11/29/15 16:00:11","Default description","no","mono","no","18","black","Ok","768","legacy","C:/Users/Martin/Desktop/Uni/Cognitive Modeling/Experiment/subject-2685329.csv","xpyriment","Interactive Ising","3.0.4","0","z","NA","NA","z","282","NA","NA","282","legacy","experiment","2685329","odd","legacy","57426","NA","NA","NA","NA","315284","NA","NA","313768","314984","1599","315284","312251","312241","314984","1599","CogMod 2015 Experiment","78","24545","78","yes","1024"
"1","400","150","15","100","100","315","315","white","no","xpyriment","legacy","legacy","0","uniform","1","1","m","0","0","0","0","0","78","NA","NA","78","78","0","78","78","78","78","0","11/29/15 16:00:11","Default description","no","mono","no","18","black","Ok","768","legacy","C:/Users/Martin/Desktop/Uni/Cognitive Modeling/Experiment/subject-2685329.csv","xpyriment","Interactive Ising","3.0.4","0","m","NA","NA","m","357","NA","NA","357","legacy","experiment","2685329","odd","legacy","57426","NA","NA","NA","NA","318051","NA","NA","317268","317685","1599","318051","315751","315727","317685","1599","CogMod 2015 Experiment","79","24902","79","yes","1024"
"1","1600","-150","15","100","100","314","314","white","no","xpyriment","legacy","legacy","0","uniform","1","1","z","0","0","0","0","0","79","NA","NA","79","79","0","79","79","79","79","0","11/29/15 16:00:11","Default description","no","mono","no","18","black","Ok","768","legacy","C:/Users/Martin/Desktop/Uni/Cognitive Modeling/Experiment/subject-2685329.csv","xpyriment","Interactive Ising","3.0.4","0","z","NA","NA","z","261","NA","NA","261","legacy","experiment","2685329","odd","legacy","57426","NA","NA","NA","NA","321952","NA","NA","320051","321669","1599","321952","318535","318516","321669","1599","CogMod 2015 Experiment","80","25163","80","yes","1024"
"1","1600","-150","15","100","100","313","313","white","no","xpyriment","legacy","legacy","0","uniform","1","1","z","0","0","0","0","0","80","NA","NA","80","80","0","80","80","80","80","0","11/29/15 16:00:11","Default description","no","mono","no","18","black","Ok","768","legacy","C:/Users/Martin/Desktop/Uni/Cognitive Modeling/Experiment/subject-2685329.csv","xpyriment","Interactive Ising","3.0.4","0","z","NA","NA","z","270","NA","NA","270","legacy","experiment","2685329","odd","legacy","57426","NA","NA","NA","NA","325835","NA","NA","323935","325551","1599","325835","322418","322396","325551","1599","CogMod 2015 Experiment","81","25433","81","yes","1024"
"1","800","-150","15","100","100","314","314","white","no","xpyriment","legacy","legacy","0","uniform","1","1","z","0","0","0","0","0","81","NA","NA","81","81","0","81","81","81","81","0","11/29/15 16:00:11","Default description","no","mono","no","18","black","Ok","768","legacy","C:/Users/Martin/Desktop/Uni/Cognitive Modeling/Experiment/subject-2685329.csv","xpyriment","Interactive Ising","3.0.4","0","z","NA","NA","z","381","NA","NA","381","legacy","experiment","2685329","odd","legacy","57426","NA","NA","NA","NA","329019","NA","NA","327801","328619","1599","329019","326285","326277","328619","1599","CogMod 2015 Experiment","82","25814","82","yes","1024"
"1","800","150","15","100","100","315","315","white","no","xpyriment","legacy","legacy","0","uniform","1","1","m","0","0","0","0","0","82","NA","NA","82","82","0","82","82","82","82","0","11/29/15 16:00:11","Default description","no","mono","no","18","black","Ok","768","legacy","C:/Users/Martin/Desktop/Uni/Cognitive Modeling/Experiment/subject-2685329.csv","xpyriment","Interactive Ising","3.0.4","0","m","NA","NA","m","383","NA","NA","383","legacy","experiment","2685329","odd","legacy","57426","NA","NA","NA","NA","332218","NA","NA","331002","331819","1599","332219","329485","329466","331819","1599","CogMod 2015 Experiment","83","26197","83","yes","1024"
"1","800","150","15","100","100","315","315","white","no","xpyriment","legacy","legacy","0","uniform","1","1","m","0","0","0","0","0","83","NA","NA","83","83","0","83","83","83","83","0","11/29/15 16:00:11","Default description","no","mono","no","18","black","Ok","768","legacy","C:/Users/Martin/Desktop/Uni/Cognitive Modeling/Experiment/subject-2685329.csv","xpyriment","Interactive Ising","3.0.4","0","m","NA","NA","m","296","NA","NA","296","legacy","experiment","2685329","odd","legacy","57426","NA","NA","NA","NA","335318","NA","NA","334185","335002","1599","335318","332669","332661","335002","1599","CogMod 2015 Experiment","84","26493","84","yes","1024"
"1","1200","-150","15","100","100","314","314","white","no","xpyriment","legacy","legacy","0","uniform","1","1","z","0","0","0","0","0","84","NA","NA","84","84","0","84","84","84","84","0","11/29/15 16:00:11","Default description","no","mono","no","18","black","Ok","768","legacy","C:/Users/Martin/Desktop/Uni/Cognitive Modeling/Experiment/subject-2685329.csv","xpyriment","Interactive Ising","3.0.4","0","z","NA","NA","z","253","NA","NA","253","legacy","experiment","2685329","odd","legacy","57426","NA","NA","NA","NA","338785","NA","NA","337302","338519","1599","338786","335785","335769","338519","1599","CogMod 2015 Experiment","85","26746","85","yes","1024"
"1","400","150","15","100","100","315","315","white","no","xpyriment","legacy","legacy","0","uniform","1","1","m","0","0","0","0","0","85","NA","NA","85","85","0","85","85","85","85","0","11/29/15 16:00:11","Default description","no","mono","no","18","black","Ok","768","legacy","C:/Users/Martin/Desktop/Uni/Cognitive Modeling/Experiment/subject-2685329.csv","xpyriment","Interactive Ising","3.0.4","0","m","NA","NA","m","394","NA","NA","394","legacy","experiment","2685329","odd","legacy","57426","NA","NA","NA","NA","341585","NA","NA","340752","341169","1599","341586","339236","339226","341169","1599","CogMod 2015 Experiment","86","27140","86","yes","1024"
"1","800","-150","15","100","100","315","315","white","no","xpyriment","legacy","legacy","0","uniform","1","1","z","0","0","0","0","0","86","NA","NA","86","86","0","86","86","86","86","0","11/29/15 16:00:11","Default description","no","mono","no","18","black","Ok","768","legacy","C:/Users/Martin/Desktop/Uni/Cognitive Modeling/Experiment/subject-2685329.csv","xpyriment","Interactive Ising","3.0.4","0","z","NA","NA","z","266","NA","NA","266","legacy","experiment","2685329","odd","legacy","57426","NA","NA","NA","NA","344652","NA","NA","343552","344369","1599","344652","342035","342027","344369","1599","CogMod 2015 Experiment","87","27406","87","yes","1024"
"1","1600","150","15","100","100","314","314","white","no","xpyriment","legacy","legacy","0","uniform","1","1","m","0","0","0","0","0","87","NA","NA","87","87","0","87","87","87","87","0","11/29/15 16:00:11","Default description","no","mono","no","18","black","Ok","768","legacy","C:/Users/Martin/Desktop/Uni/Cognitive Modeling/Experiment/subject-2685329.csv","xpyriment","Interactive Ising","3.0.4","0","m","NA","NA","m","242","NA","NA","242","legacy","experiment","2685329","odd","legacy","57426","NA","NA","NA","NA","348486","NA","NA","346619","348236","1599","348486","345103","345093","348236","1599","CogMod 2015 Experiment","88","27648","88","yes","1024"
"1","1600","150","15","100","100","314","314","white","no","xpyriment","legacy","legacy","0","uniform","1","1","m","0","0","0","0","0","88","NA","NA","88","88","0","88","88","88","88","0","11/29/15 16:00:11","Default description","no","mono","no","18","black","Ok","768","legacy","C:/Users/Martin/Desktop/Uni/Cognitive Modeling/Experiment/subject-2685329.csv","xpyriment","Interactive Ising","3.0.4","0","m","NA","NA","m","335","NA","NA","335","legacy","experiment","2685329","odd","legacy","57426","NA","NA","NA","NA","352453","NA","NA","350486","352103","1599","352453","348969","348947","352103","1599","CogMod 2015 Experiment","89","27983","89","yes","1024"
"1","400","150","15","100","100","314","314","white","no","xpyriment","legacy","legacy","0","uniform","1","1","m","0","0","0","0","0","89","NA","NA","89","89","0","89","89","89","89","0","11/29/15 16:00:11","Default description","no","mono","no","18","black","Ok","768","legacy","C:/Users/Martin/Desktop/Uni/Cognitive Modeling/Experiment/subject-2685329.csv","xpyriment","Interactive Ising","3.0.4","0","m","NA","NA","m","359","NA","NA","359","legacy","experiment","2685329","odd","legacy","57426","NA","NA","NA","NA","355236","NA","NA","354436","354853","1599","355236","352920","352895","354853","1599","CogMod 2015 Experiment","90","28342","90","yes","1024"
"1","800","150","15","100","100","314","314","white","no","xpyriment","legacy","legacy","0","uniform","1","1","m","0","0","0","0","0","90","NA","NA","90","90","0","90","90","90","90","0","11/29/15 16:00:11","Default description","no","mono","no","18","black","Ok","768","legacy","C:/Users/Martin/Desktop/Uni/Cognitive Modeling/Experiment/subject-2685329.csv","xpyriment","Interactive Ising","3.0.4","0","m","NA","NA","m","300","NA","NA","300","legacy","experiment","2685329","odd","legacy","57426","NA","NA","NA","NA","358336","NA","NA","357202","358020","1599","358336","355686","355677","358019","1599","CogMod 2015 Experiment","91","28642","91","yes","1024"
"1","800","-150","15","100","100","315","315","white","no","xpyriment","legacy","legacy","0","uniform","1","1","z","0","0","0","0","0","91","NA","NA","91","91","0","91","91","91","91","0","11/29/15 16:00:11","Default description","no","mono","no","18","black","Ok","768","legacy","C:/Users/Martin/Desktop/Uni/Cognitive Modeling/Experiment/subject-2685329.csv","xpyriment","Interactive Ising","3.0.4","0","z","NA","NA","z","383","NA","NA","383","legacy","experiment","2685329","odd","legacy","57426","NA","NA","NA","NA","361519","NA","NA","360303","361120","1599","361519","358787","358777","361119","1599","CogMod 2015 Experiment","92","29025","92","yes","1024"
"1","1600","150","15","100","100","317","317","white","no","xpyriment","legacy","legacy","0","uniform","1","1","m","0","0","0","0","0","92","NA","NA","92","92","0","92","92","92","92","0","11/29/15 16:00:11","Default description","no","mono","no","18","black","Ok","768","legacy","C:/Users/Martin/Desktop/Uni/Cognitive Modeling/Experiment/subject-2685329.csv","xpyriment","Interactive Ising","3.0.4","0","m","NA","NA","m","485","NA","NA","485","legacy","experiment","2685329","odd","legacy","57426","NA","NA","NA","NA","365603","NA","NA","363486","365103","1599","365603","361970","361960","365103","1599","CogMod 2015 Experiment","93","29510","93","yes","1024"
"1","400","-150","15","100","100","316","316","white","no","xpyriment","legacy","legacy","0","uniform","1","1","z","0","0","0","0","0","93","NA","NA","93","93","0","93","93","93","93","0","11/29/15 16:00:11","Default description","no","mono","no","18","black","Ok","768","legacy","C:/Users/Martin/Desktop/Uni/Cognitive Modeling/Experiment/subject-2685329.csv","xpyriment","Interactive Ising","3.0.4","0","z","NA","NA","z","278","NA","NA","278","legacy","experiment","2685329","odd","legacy","57426","NA","NA","NA","NA","368303","NA","NA","367586","368003","1599","368303","366070","366051","368003","1599","CogMod 2015 Experiment","94","29788","94","yes","1024"
"1","400","150","15","100","100","316","316","white","no","xpyriment","legacy","legacy","0","uniform","1","1","m","0","0","0","0","0","94","NA","NA","94","94","0","94","94","94","94","0","11/29/15 16:00:11","Default description","no","mono","no","18","black","Ok","768","legacy","C:/Users/Martin/Desktop/Uni/Cognitive Modeling/Experiment/subject-2685329.csv","xpyriment","Interactive Ising","3.0.4","0","m","NA","NA","m","319","NA","NA","319","legacy","experiment","2685329","odd","legacy","57426","NA","NA","NA","NA","371020","NA","NA","370270","370687","1599","371020","368754","368742","370687","1599","CogMod 2015 Experiment","95","30107","95","yes","1024"
"1","1200","150","15","100","100","316","316","white","no","xpyriment","legacy","legacy","0","uniform","1","1","m","0","0","0","0","0","95","NA","NA","95","95","0","95","95","95","95","0","11/29/15 16:00:11","Default description","no","mono","no","18","black","Ok","768","legacy","C:/Users/Martin/Desktop/Uni/Cognitive Modeling/Experiment/subject-2685329.csv","xpyriment","Interactive Ising","3.0.4","0","m","NA","NA","m","278","NA","NA","278","legacy","experiment","2685329","odd","legacy","57426","NA","NA","NA","NA","374503","NA","NA","372986","374203","1599","374504","371470","371458","374203","1599","CogMod 2015 Experiment","96","30385","96","yes","1024"
"1","1600","150","15","100","100","316","316","white","no","xpyriment","legacy","legacy","0","uniform","1","1","m","0","0","0","0","0","96","NA","NA","96","96","0","96","96","96","96","0","11/29/15 16:00:11","Default description","no","mono","no","18","black","Ok","768","legacy","C:/Users/Martin/Desktop/Uni/Cognitive Modeling/Experiment/subject-2685329.csv","xpyriment","Interactive Ising","3.0.4","0","m","NA","NA","m","331","NA","NA","331","legacy","experiment","2685329","odd","legacy","57426","NA","NA","NA","NA","378437","NA","NA","376470","378087","1599","378437","374954","374940","378087","1599","CogMod 2015 Experiment","97","30716","97","yes","1024"
"1","800","-150","15","100","100","316","316","white","no","xpyriment","legacy","legacy","0","uniform","1","1","z","0","0","0","0","0","97","NA","NA","97","97","0","97","97","97","97","0","11/29/15 16:00:11","Default description","no","mono","no","18","black","Ok","768","legacy","C:/Users/Martin/Desktop/Uni/Cognitive Modeling/Experiment/subject-2685329.csv","xpyriment","Interactive Ising","3.0.4","0","z","NA","NA","z","282","NA","NA","282","legacy","experiment","2685329","odd","legacy","57426","NA","NA","NA","NA","381520","NA","NA","380403","381220","1599","381520","378886","378875","381220","1599","CogMod 2015 Experiment","98","30998","98","yes","1024"
"1","800","150","15","100","100","316","316","white","no","xpyriment","legacy","legacy","0","uniform","1","1","m","0","0","0","0","0","98","NA","NA","98","98","0","98","98","98","98","0","11/29/15 16:00:11","Default description","no","mono","no","18","black","Ok","768","legacy","C:/Users/Martin/Desktop/Uni/Cognitive Modeling/Experiment/subject-2685329.csv","xpyriment","Interactive Ising","3.0.4","0","m","NA","NA","m","350","NA","NA","350","legacy","experiment","2685329","odd","legacy","57426","NA","NA","NA","NA","384687","NA","NA","383504","384321","1599","384687","381987","381969","384321","1599","CogMod 2015 Experiment","99","31348","99","yes","1024"
"1","800","150","15","100","100","316","316","white","no","xpyriment","legacy","legacy","0","uniform","1","1","m","0","0","0","0","0","99","NA","NA","99","99","0","99","99","99","99","0","11/29/15 16:00:11","Default description","no","mono","no","18","black","Ok","768","legacy","C:/Users/Martin/Desktop/Uni/Cognitive Modeling/Experiment/subject-2685329.csv","xpyriment","Interactive Ising","3.0.4","0","m","NA","NA","m","272","NA","NA","272","legacy","experiment","2685329","odd","legacy","57426","NA","NA","NA","NA","387754","NA","NA","386654","387470","1599","387754","385137","385125","387470","1599","CogMod 2015 Experiment","100","31620","100","yes","1024"
"1","1200","-150","15","100","100","315","315","white","no","xpyriment","legacy","legacy","0","uniform","1","1","z","0","0","0","0","0","100","NA","NA","100","100","0","100","100","100","100","0","11/29/15 16:00:11","Default description","no","mono","no","18","black","Ok","768","legacy","C:/Users/Martin/Desktop/Uni/Cognitive Modeling/Experiment/subject-2685329.csv","xpyriment","Interactive Ising","3.0.4","0","z","NA","NA","z","254","NA","NA","254","legacy","experiment","2685329","odd","legacy","57426","NA","NA","NA","NA","391221","NA","NA","389738","390954","1599","391221","388220","388203","390954","1599","CogMod 2015 Experiment","101","31874","101","yes","1024"
"1","800","-150","15","100","100","315","315","white","no","xpyriment","legacy","legacy","0","uniform","1","1","z","0","0","0","0","0","101","NA","NA","101","101","0","101","101","101","101","0","11/29/15 16:00:11","Default description","no","mono","no","18","black","Ok","768","legacy","C:/Users/Martin/Desktop/Uni/Cognitive Modeling/Experiment/subject-2685329.csv","xpyriment","Interactive Ising","3.0.4","0","z","NA","NA","z","298","NA","NA","298","legacy","experiment","2685329","odd","legacy","57426","NA","NA","NA","NA","394338","NA","NA","393204","394020","1599","394338","391687","391664","394020","1599","CogMod 2015 Experiment","102","32172","102","yes","1024"
"1","1200","-150","15","100","100","315","315","white","no","xpyriment","legacy","legacy","0","uniform","1","1","z","0","0","0","0","0","102","NA","NA","102","102","0","102","102","102","102","0","11/29/15 16:00:11","Default description","no","mono","no","18","black","Ok","768","legacy","C:/Users/Martin/Desktop/Uni/Cognitive Modeling/Experiment/subject-2685329.csv","xpyriment","Interactive Ising","3.0.4","0","z","NA","NA","z","311","NA","NA","311","legacy","experiment","2685329","odd","legacy","57426","NA","NA","NA","NA","397855","NA","NA","396304","397520","1599","397855","394787","394777","397520","1599","CogMod 2015 Experiment","103","32483","103","yes","1024"
"1","800","150","15","100","100","315","315","white","no","xpyriment","legacy","legacy","0","uniform","1","1","m","0","0","0","0","0","103","NA","NA","103","103","0","103","103","103","103","0","11/29/15 16:00:11","Default description","no","mono","no","18","black","Ok","768","legacy","C:/Users/Martin/Desktop/Uni/Cognitive Modeling/Experiment/subject-2685329.csv","xpyriment","Interactive Ising","3.0.4","0","m","NA","NA","m","310","NA","NA","310","legacy","experiment","2685329","odd","legacy","57426","NA","NA","NA","NA","401005","NA","NA","399854","400671","1599","401005","398337","398314","400671","1599","CogMod 2015 Experiment","104","32793","104","yes","1024"
"1","800","-150","15","100","100","314","314","white","no","xpyriment","legacy","legacy","0","uniform","1","1","z","0","0","0","0","0","104","NA","NA","104","104","0","104","104","104","104","0","11/29/15 16:00:11","Default description","no","mono","no","18","black","Ok","768","legacy","C:/Users/Martin/Desktop/Uni/Cognitive Modeling/Experiment/subject-2685329.csv","xpyriment","Interactive Ising","3.0.4","0","z","NA","NA","z","281","NA","NA","281","legacy","experiment","2685329","odd","legacy","57426","NA","NA","NA","NA","404088","NA","NA","402971","403787","1599","404088","401454","401442","403787","1599","CogMod 2015 Experiment","105","33074","105","yes","1024"
"1","1600","-150","15","100","100","314","314","white","no","xpyriment","legacy","legacy","0","uniform","1","1","z","0","0","0","0","0","105","NA","NA","105","105","0","105","105","105","105","0","11/29/15 16:00:11","Default description","no","mono","no","18","black","Ok","768","legacy","C:/Users/Martin/Desktop/Uni/Cognitive Modeling/Experiment/subject-2685329.csv","xpyriment","Interactive Ising","3.0.4","0","z","NA","NA","z","289","NA","NA","289","legacy","experiment","2685329","odd","legacy","57426","NA","NA","NA","NA","407988","NA","NA","406071","407688","1599","407988","404554","404536","407688","1599","CogMod 2015 Experiment","106","33363","106","yes","1024"
"1","800","150","15","100","100","315","315","white","no","xpyriment","legacy","legacy","0","uniform","1","1","m","0","0","0","0","0","106","NA","NA","106","106","0","106","106","106","106","0","11/29/15 16:00:11","Default description","no","mono","no","18","black","Ok","768","legacy","C:/Users/Martin/Desktop/Uni/Cognitive Modeling/Experiment/subject-2685329.csv","xpyriment","Interactive Ising","3.0.4","0","m","NA","NA","m","363","NA","NA","363","legacy","experiment","2685329","odd","legacy","57426","NA","NA","NA","NA","411154","NA","NA","409955","410771","1599","411154","408438","408428","410771","1599","CogMod 2015 Experiment","107","33726","107","yes","1024"
"1","1200","150","15","100","100","315","315","white","no","xpyriment","legacy","legacy","0","uniform","1","1","m","0","0","0","0","0","107","NA","NA","107","107","0","107","107","107","107","0","11/29/15 16:00:11","Default description","no","mono","no","18","black","Ok","768","legacy","C:/Users/Martin/Desktop/Uni/Cognitive Modeling/Experiment/subject-2685329.csv","xpyriment","Interactive Ising","3.0.4","0","m","NA","NA","m","311","NA","NA","311","legacy","experiment","2685329","odd","legacy","57426","NA","NA","NA","NA","414672","NA","NA","413121","414338","1599","414672","411605","411595","414338","1599","CogMod 2015 Experiment","108","34037","108","yes","1024"
"1","800","-150","15","100","100","315","315","white","no","xpyriment","legacy","legacy","0","uniform","1","1","z","0","0","0","0","0","108","NA","NA","108","108","0","108","108","108","108","0","11/29/15 16:00:11","Default description","no","mono","no","18","black","Ok","768","legacy","C:/Users/Martin/Desktop/Uni/Cognitive Modeling/Experiment/subject-2685329.csv","xpyriment","Interactive Ising","3.0.4","0","z","NA","NA","z","338","NA","NA","338","legacy","experiment","2685329","odd","legacy","57426","NA","NA","NA","NA","417804","NA","NA","416638","417455","1599","417805","415121","415110","417455","1599","CogMod 2015 Experiment","109","34375","109","yes","1024"
"1","1200","-150","15","100","100","315","315","white","no","xpyriment","legacy","legacy","0","uniform","1","1","z","0","0","0","0","0","109","NA","NA","109","109","0","109","109","109","109","0","11/29/15 16:00:11","Default description","no","mono","no","18","black","Ok","768","legacy","C:/Users/Martin/Desktop/Uni/Cognitive Modeling/Experiment/subject-2685329.csv","xpyriment","Interactive Ising","3.0.4","0","z","NA","NA","z","292","NA","NA","292","legacy","experiment","2685329","odd","legacy","57426","NA","NA","NA","NA","421289","NA","NA","419771","420988","1599","421289","418255","418246","420988","1599","CogMod 2015 Experiment","110","34667","110","yes","1024"
"1","800","150","15","100","100","315","315","white","no","xpyriment","legacy","legacy","0","uniform","1","1","m","0","0","0","0","0","110","NA","NA","110","110","0","110","110","110","110","0","11/29/15 16:00:11","Default description","no","mono","no","18","black","Ok","768","legacy","C:/Users/Martin/Desktop/Uni/Cognitive Modeling/Experiment/subject-2685329.csv","xpyriment","Interactive Ising","3.0.4","0","m","NA","NA","m","306","NA","NA","306","legacy","experiment","2685329","odd","legacy","57426","NA","NA","NA","NA","424389","NA","NA","423255","424072","1599","424389","421738","421726","424071","1599","CogMod 2015 Experiment","111","34973","111","yes","1024"
"1","1600","150","15","100","100","315","315","white","no","xpyriment","legacy","legacy","0","uniform","1","1","m","0","0","0","0","0","111","NA","NA","111","111","0","111","111","111","111","0","11/29/15 16:00:11","Default description","no","mono","no","18","black","Ok","768","legacy","C:/Users/Martin/Desktop/Uni/Cognitive Modeling/Experiment/subject-2685329.csv","xpyriment","Interactive Ising","3.0.4","0","m","NA","NA","m","315","NA","NA","315","legacy","experiment","2685329","odd","legacy","57426","NA","NA","NA","NA","428306","NA","NA","426355","427972","1599","428306","424838","424828","427972","1599","CogMod 2015 Experiment","112","35288","112","yes","1024"
"1","1600","-150","15","100","100","314","314","white","no","xpyriment","legacy","legacy","0","uniform","1","1","z","0","0","0","0","0","112","NA","NA","112","112","0","112","112","112","112","0","11/29/15 16:00:11","Default description","no","mono","no","18","black","Ok","768","legacy","C:/Users/Martin/Desktop/Uni/Cognitive Modeling/Experiment/subject-2685329.csv","xpyriment","Interactive Ising","3.0.4","0","z","NA","NA","z","276","NA","NA","276","legacy","experiment","2685329","odd","legacy","57426","NA","NA","NA","NA","432189","NA","NA","430272","431889","1599","432189","428755","428744","431888","1599","CogMod 2015 Experiment","113","35564","113","yes","1024"
"1","1600","150","15","100","100","314","314","white","no","xpyriment","legacy","legacy","0","uniform","1","1","m","0","0","0","0","0","113","NA","NA","113","113","0","113","113","113","113","0","11/29/15 16:00:11","Default description","no","mono","no","18","black","Ok","768","legacy","C:/Users/Martin/Desktop/Uni/Cognitive Modeling/Experiment/subject-2685329.csv","xpyriment","Interactive Ising","3.0.4","0","m","NA","NA","m","303","NA","NA","303","legacy","experiment","2685329","odd","legacy","57426","NA","NA","NA","NA","436089","NA","NA","434155","435772","1599","436089","432639","432628","435772","1599","CogMod 2015 Experiment","114","35867","114","yes","1024"
"1","400","-150","15","100","100","314","314","white","no","xpyriment","legacy","legacy","0","uniform","1","1","z","0","0","0","0","0","114","NA","NA","114","114","0","114","114","114","114","0","11/29/15 16:00:11","Default description","no","mono","no","18","black","Ok","768","legacy","C:/Users/Martin/Desktop/Uni/Cognitive Modeling/Experiment/subject-2685329.csv","xpyriment","Interactive Ising","3.0.4","0","z","NA","NA","z","257","NA","NA","257","legacy","experiment","2685329","odd","legacy","57426","NA","NA","NA","NA","438739","NA","NA","438056","438472","1599","438739","436540","436527","438472","1599","CogMod 2015 Experiment","115","36124","115","yes","1024"
"1","1600","-150","15","100","100","313","313","white","no","xpyriment","legacy","legacy","0","uniform","1","1","z","0","0","0","0","0","115","NA","NA","115","115","0","115","115","115","115","0","11/29/15 16:00:11","Default description","no","mono","no","18","black","Ok","768","legacy","C:/Users/Martin/Desktop/Uni/Cognitive Modeling/Experiment/subject-2685329.csv","xpyriment","Interactive Ising","3.0.4","0","z","NA","NA","z","243","NA","NA","243","legacy","experiment","2685329","odd","legacy","57426","NA","NA","NA","NA","442589","NA","NA","440706","442322","1599","442589","439189","439179","442322","1599","CogMod 2015 Experiment","116","36367","116","yes","1024"
"1","400","-150","15","100","100","313","313","white","no","xpyriment","legacy","legacy","0","uniform","1","1","z","0","0","0","0","0","116","NA","NA","116","116","0","116","116","116","116","0","11/29/15 16:00:11","Default description","no","mono","no","18","black","Ok","768","legacy","C:/Users/Martin/Desktop/Uni/Cognitive Modeling/Experiment/subject-2685329.csv","xpyriment","Interactive Ising","3.0.4","0","z","NA","NA","z","316","NA","NA","316","legacy","experiment","2685329","odd","legacy","57426","NA","NA","NA","NA","445306","NA","NA","444556","444973","1599","445306","443039","443030","444973","1599","CogMod 2015 Experiment","117","36683","117","yes","1024"
"1","1600","-150","15","100","100","313","313","white","no","xpyriment","legacy","legacy","0","uniform","1","1","z","0","0","0","0","0","117","NA","NA","117","117","0","117","117","117","117","0","11/29/15 16:00:11","Default description","no","mono","no","18","black","Ok","768","legacy","C:/Users/Martin/Desktop/Uni/Cognitive Modeling/Experiment/subject-2685329.csv","xpyriment","Interactive Ising","3.0.4","0","z","NA","NA","z","283","NA","NA","283","legacy","experiment","2685329","odd","legacy","57426","NA","NA","NA","NA","449189","NA","NA","447272","448890","1599","449189","445755","445743","448889","1599","CogMod 2015 Experiment","118","36966","118","yes","1024"
"1","1600","150","15","100","100","313","313","white","no","xpyriment","legacy","legacy","0","uniform","1","1","m","0","0","0","0","0","118","NA","NA","118","118","0","118","118","118","118","0","11/29/15 16:00:11","Default description","no","mono","no","18","black","Ok","768","legacy","C:/Users/Martin/Desktop/Uni/Cognitive Modeling/Experiment/subject-2685329.csv","xpyriment","Interactive Ising","3.0.4","0","m","NA","NA","m","305","NA","NA","305","legacy","experiment","2685329","odd","legacy","57426","NA","NA","NA","NA","453106","NA","NA","451172","452790","1599","453106","449656","449633","452790","1599","CogMod 2015 Experiment","119","37271","119","yes","1024"
"1","400","-150","15","100","100","313","313","white","no","xpyriment","legacy","legacy","0","uniform","1","1","z","0","0","0","0","0","119","NA","NA","119","119","0","119","119","119","119","0","11/29/15 16:00:11","Default description","no","mono","no","18","black","Ok","768","legacy","C:/Users/Martin/Desktop/Uni/Cognitive Modeling/Experiment/subject-2685329.csv","xpyriment","Interactive Ising","3.0.4","0","z","NA","NA","z","318","NA","NA","318","legacy","experiment","2685329","odd","legacy","57426","NA","NA","NA","NA","455822","NA","NA","455073","455489","1599","455823","453556","453547","455489","1599","CogMod 2015 Experiment","120","37589","120","yes","1024"
"2","1600","-150","32","100","100","270","270","white","no","xpyriment","legacy","legacy","0","uniform","1","1","z","0","0","0","0","0","120","0","NA","120","120","0","120","120","120","120","0","11/29/15 16:00:11","Default description","no","mono","no","18","black","Ok","768","legacy","C:/Users/Martin/Desktop/Uni/Cognitive Modeling/Experiment/subject-2685329.csv","xpyriment","Interactive Ising","3.0.4","0","z","space","NA","z","270","15606","NA","270","legacy","experiment","2685329","odd","legacy","57426","471980","NA","NA","NA","475840","456373","NA","473940","475557","1599","475840","472424","472413","475557","1599","CogMod 2015 Experiment","1","270","1","yes","1024"
"2","1600","-150","32","100","100","244","244","white","no","xpyriment","legacy","legacy","0","uniform","1","1","z","0","0","0","0","0","121","0","NA","121","121","0","121","121","121","121","0","11/29/15 16:00:11","Default description","no","mono","no","18","black","Ok","768","legacy","C:/Users/Martin/Desktop/Uni/Cognitive Modeling/Experiment/subject-2685329.csv","xpyriment","Interactive Ising","3.0.4","0","z","space","NA","z","219","15606","NA","219","legacy","experiment","2685329","odd","legacy","57426","471980","NA","NA","NA","479657","456373","NA","477807","479424","1599","479657","476290","476278","479424","1599","CogMod 2015 Experiment","2","489","2","yes","1024"
"2","1600","150","32","100","100","252","252","white","no","xpyriment","legacy","legacy","0","uniform","1","1","m","0","0","0","0","0","122","0","NA","122","122","0","122","122","122","122","0","11/29/15 16:00:11","Default description","no","mono","no","18","black","Ok","768","legacy","C:/Users/Martin/Desktop/Uni/Cognitive Modeling/Experiment/subject-2685329.csv","xpyriment","Interactive Ising","3.0.4","0","m","space","NA","m","267","15606","NA","267","legacy","experiment","2685329","odd","legacy","57426","471980","NA","NA","NA","483541","456373","NA","481641","483257","1599","483541","480124","480105","483257","1599","CogMod 2015 Experiment","3","756","3","yes","1024"
"2","1600","150","32","100","100","256","256","white","no","xpyriment","legacy","legacy","0","uniform","1","1","m","0","0","0","0","0","123","0","NA","123","123","0","123","123","123","123","0","11/29/15 16:00:11","Default description","no","mono","no","18","black","Ok","768","legacy","C:/Users/Martin/Desktop/Uni/Cognitive Modeling/Experiment/subject-2685329.csv","xpyriment","Interactive Ising","3.0.4","0","m","space","NA","m","268","15606","NA","268","legacy","experiment","2685329","odd","legacy","57426","471980","NA","NA","NA","487407","456373","NA","485507","487124","1599","487407","483990","483979","487124","1599","CogMod 2015 Experiment","4","1024","4","yes","1024"
"2","800","150","8","100","100","261","261","white","no","xpyriment","legacy","legacy","0","uniform","1","1","m","0","0","0","0","0","124","0","NA","124","124","0","124","124","124","124","0","11/29/15 16:00:11","Default description","no","mono","no","18","black","Ok","768","legacy","C:/Users/Martin/Desktop/Uni/Cognitive Modeling/Experiment/subject-2685329.csv","xpyriment","Interactive Ising","3.0.4","0","m","space","NA","m","282","15606","NA","282","legacy","experiment","2685329","odd","legacy","57426","471980","NA","NA","NA","490524","456373","NA","489408","490224","1599","490524","487890","487868","490224","1599","CogMod 2015 Experiment","5","1306","5","yes","1024"
"2","1200","150","16","100","100","264","264","white","no","xpyriment","legacy","legacy","0","uniform","1","1","m","0","0","0","0","0","125","0","NA","125","125","0","125","125","125","125","0","11/29/15 16:00:11","Default description","no","mono","no","18","black","Ok","768","legacy","C:/Users/Martin/Desktop/Uni/Cognitive Modeling/Experiment/subject-2685329.csv","xpyriment","Interactive Ising","3.0.4","0","m","space","NA","m","278","15606","NA","278","legacy","experiment","2685329","odd","legacy","57426","471980","NA","NA","NA","494007","456373","NA","492491","493707","1599","494007","490974","490960","493707","1599","CogMod 2015 Experiment","6","1584","6","yes","1024"
"2","1600","-150","32","100","100","261","261","white","no","xpyriment","legacy","legacy","0","uniform","1","1","z","0","0","0","0","0","126","0","NA","126","126","0","126","126","126","126","0","11/29/15 16:00:11","Default description","no","mono","no","18","black","Ok","768","legacy","C:/Users/Martin/Desktop/Uni/Cognitive Modeling/Experiment/subject-2685329.csv","xpyriment","Interactive Ising","3.0.4","0","z","space","NA","z","244","15606","NA","244","legacy","experiment","2685329","odd","legacy","57426","471980","NA","NA","NA","497874","456373","NA","495991","497608","1599","497874","494474","494450","497608","1599","CogMod 2015 Experiment","7","1828","7","yes","1024"
"2","1600","-150","32","100","100","257","257","white","no","xpyriment","legacy","legacy","0","uniform","1","1","z","0","0","0","0","0","127","0","NA","127","127","0","127","127","127","127","0","11/29/15 16:00:11","Default description","no","mono","no","18","black","Ok","768","legacy","C:/Users/Martin/Desktop/Uni/Cognitive Modeling/Experiment/subject-2685329.csv","xpyriment","Interactive Ising","3.0.4","0","z","space","NA","z","230","15606","NA","230","legacy","experiment","2685329","odd","legacy","57426","471980","NA","NA","NA","501707","456373","NA","499841","501458","1599","501708","498324","498316","501458","1599","CogMod 2015 Experiment","8","2058","8","yes","1024"
"2","1600","-150","32","100","100","261","261","white","no","xpyriment","legacy","legacy","0","uniform","1","1","z","0","0","0","0","0","128","0","NA","128","128","0","128","128","128","128","0","11/29/15 16:00:11","Default description","no","mono","no","18","black","Ok","768","legacy","C:/Users/Martin/Desktop/Uni/Cognitive Modeling/Experiment/subject-2685329.csv","xpyriment","Interactive Ising","3.0.4","0","z","space","NA","z","292","15606","NA","292","legacy","experiment","2685329","odd","legacy","57426","471980","NA","NA","NA","505608","456373","NA","503675","505292","1599","505608","502158","502150","505292","1599","CogMod 2015 Experiment","9","2350","9","yes","1024"
"2","800","-150","8","100","100","265","265","white","no","xpyriment","legacy","legacy","0","uniform","1","1","z","0","0","0","0","0","129","0","NA","129","129","0","129","129","129","129","0","11/29/15 16:00:11","Default description","no","mono","no","18","black","Ok","768","legacy","C:/Users/Martin/Desktop/Uni/Cognitive Modeling/Experiment/subject-2685329.csv","xpyriment","Interactive Ising","3.0.4","0","z","space","NA","z","305","15606","NA","305","legacy","experiment","2685329","odd","legacy","57426","471980","NA","NA","NA","508708","456373","NA","507575","508391","1599","508708","506058","506047","508391","1599","CogMod 2015 Experiment","10","2655","10","yes","1024"
"2","1600","150","32","100","100","270","270","white","no","xpyriment","legacy","legacy","0","uniform","1","1","m","0","0","0","0","0","130","0","NA","130","130","0","130","130","130","130","0","11/29/15 16:00:11","Default description","no","mono","no","18","black","Ok","768","legacy","C:/Users/Martin/Desktop/Uni/Cognitive Modeling/Experiment/subject-2685329.csv","xpyriment","Interactive Ising","3.0.4","0","m","space","NA","m","318","15606","NA","318","legacy","experiment","2685329","odd","legacy","57426","471980","NA","NA","NA","512642","456373","NA","510691","512308","1599","512642","509175","509157","512308","1599","CogMod 2015 Experiment","11","2973","11","yes","1024"
"2","800","-150","8","100","100","274","274","white","no","xpyriment","legacy","legacy","0","uniform","1","1","z","0","0","0","0","0","131","0","NA","131","131","0","131","131","131","131","0","11/29/15 16:00:11","Default description","no","mono","no","18","black","Ok","768","legacy","C:/Users/Martin/Desktop/Uni/Cognitive Modeling/Experiment/subject-2685329.csv","xpyriment","Interactive Ising","3.0.4","0","z","space","NA","z","316","15606","NA","316","legacy","experiment","2685329","odd","legacy","57426","471980","NA","NA","NA","515759","456373","NA","514608","515426","1599","515759","513092","513079","515425","1599","CogMod 2015 Experiment","12","3289","12","yes","1024"
"2","1600","150","32","100","100","272","272","white","no","xpyriment","legacy","legacy","0","uniform","1","1","m","0","0","0","0","0","132","0","NA","132","132","0","132","132","132","132","0","11/29/15 16:00:11","Default description","no","mono","no","18","black","Ok","768","legacy","C:/Users/Martin/Desktop/Uni/Cognitive Modeling/Experiment/subject-2685329.csv","xpyriment","Interactive Ising","3.0.4","0","m","space","NA","m","253","15606","NA","253","legacy","experiment","2685329","odd","legacy","57426","471980","NA","NA","NA","519625","456373","NA","517741","519359","1599","519625","516225","516203","519358","1599","CogMod 2015 Experiment","13","3542","13","yes","1024"
"2","1600","150","32","100","100","275","275","white","no","xpyriment","legacy","legacy","0","uniform","1","1","m","0","0","0","0","0","133","0","NA","133","133","0","133","133","133","133","0","11/29/15 16:00:11","Default description","no","mono","no","18","black","Ok","768","legacy","C:/Users/Martin/Desktop/Uni/Cognitive Modeling/Experiment/subject-2685329.csv","xpyriment","Interactive Ising","3.0.4","0","m","space","NA","m","318","15606","NA","318","legacy","experiment","2685329","odd","legacy","57426","471980","NA","NA","NA","523558","456373","NA","521608","523225","1599","523558","520092","520071","523225","1599","CogMod 2015 Experiment","14","3860","14","yes","1024"
"2","800","150","8","100","100","279","279","white","no","xpyriment","legacy","legacy","0","uniform","1","1","m","0","0","0","0","0","134","0","NA","134","134","0","134","134","134","134","0","11/29/15 16:00:11","Default description","no","mono","no","18","black","Ok","768","legacy","C:/Users/Martin/Desktop/Uni/Cognitive Modeling/Experiment/subject-2685329.csv","xpyriment","Interactive Ising","3.0.4","0","m","space","NA","m","337","15606","NA","337","legacy","experiment","2685329","odd","legacy","57426","471980","NA","NA","NA","526692","456373","NA","525526","526342","1599","526692","524009","524000","526342","1599","CogMod 2015 Experiment","15","4197","15","yes","1024"
"2","1600","-150","32","100","100","277","277","white","no","xpyriment","legacy","legacy","0","uniform","1","1","z","0","0","0","0","0","135","0","NA","135","135","0","135","135","135","135","0","11/29/15 16:00:11","Default description","no","mono","no","18","black","Ok","768","legacy","C:/Users/Martin/Desktop/Uni/Cognitive Modeling/Experiment/subject-2685329.csv","xpyriment","Interactive Ising","3.0.4","0","z","space","NA","z","247","15606","NA","247","legacy","experiment","2685329","odd","legacy","57426","471980","NA","NA","NA","530542","456373","NA","528659","530275","1599","530542","527142","527131","530275","1599","CogMod 2015 Experiment","16","4444","16","yes","1024"
"2","400","150","4","100","100","280","280","white","no","xpyriment","legacy","legacy","0","uniform","1","1","m","0","0","0","0","0","136","0","NA","136","136","0","136","136","136","136","0","11/29/15 16:00:11","Default description","no","mono","no","18","black","Ok","768","legacy","C:/Users/Martin/Desktop/Uni/Cognitive Modeling/Experiment/subject-2685329.csv","xpyriment","Interactive Ising","3.0.4","0","m","space","NA","m","332","15606","NA","332","legacy","experiment","2685329","odd","legacy","57426","471980","NA","NA","NA","533276","456373","NA","532508","532926","1599","533276","530992","530983","532926","1599","CogMod 2015 Experiment","17","4776","17","yes","1024"
"2","1600","-150","32","100","100","278","278","white","no","xpyriment","legacy","legacy","0","uniform","1","1","z","0","0","0","0","0","137","0","NA","137","137","0","137","137","137","137","0","11/29/15 16:00:11","Default description","no","mono","no","18","black","Ok","768","legacy","C:/Users/Martin/Desktop/Uni/Cognitive Modeling/Experiment/subject-2685329.csv","xpyriment","Interactive Ising","3.0.4","0","z","space","NA","z","242","15606","NA","242","legacy","experiment","2685329","odd","legacy","57426","471980","NA","NA","NA","537143","456373","NA","535259","536876","1599","537143","533743","533727","536876","1599","CogMod 2015 Experiment","18","5018","18","yes","1024"
"2","1200","-150","16","100","100","278","278","white","no","xpyriment","legacy","legacy","0","uniform","1","1","z","0","0","0","0","0","138","0","NA","138","138","0","138","138","138","138","0","11/29/15 16:00:11","Default description","no","mono","no","18","black","Ok","768","legacy","C:/Users/Martin/Desktop/Uni/Cognitive Modeling/Experiment/subject-2685329.csv","xpyriment","Interactive Ising","3.0.4","0","z","space","NA","z","265","15606","NA","265","legacy","experiment","2685329","odd","legacy","57426","471980","NA","NA","NA","540609","456373","NA","539109","540326","1599","540609","537592","537583","540326","1599","CogMod 2015 Experiment","19","5283","19","yes","1024"
"2","800","150","8","100","100","280","280","white","no","xpyriment","legacy","legacy","0","uniform","1","1","m","0","0","0","0","0","139","0","NA","139","139","0","139","139","139","139","0","11/29/15 16:00:11","Default description","no","mono","no","18","black","Ok","768","legacy","C:/Users/Martin/Desktop/Uni/Cognitive Modeling/Experiment/subject-2685329.csv","xpyriment","Interactive Ising","3.0.4","0","m","space","NA","m","317","15606","NA","317","legacy","experiment","2685329","odd","legacy","57426","471980","NA","NA","NA","543726","456373","NA","542576","543393","1599","543726","541060","541050","543393","1599","CogMod 2015 Experiment","20","5600","20","yes","1024"
"2","800","150","8","100","100","279","279","white","no","xpyriment","legacy","legacy","0","uniform","1","1","m","0","0","0","0","0","140","0","NA","140","140","0","140","140","140","140","0","11/29/15 16:00:11","Default description","no","mono","no","18","black","Ok","768","legacy","C:/Users/Martin/Desktop/Uni/Cognitive Modeling/Experiment/subject-2685329.csv","xpyriment","Interactive Ising","3.0.4","0","m","space","NA","m","273","15606","NA","273","legacy","experiment","2685329","odd","legacy","57426","471980","NA","NA","NA","546793","456373","NA","545692","546510","1599","546793","544176","544164","546510","1599","CogMod 2015 Experiment","21","5873","21","yes","1024"
"2","1200","150","16","100","100","280","280","white","no","xpyriment","legacy","legacy","0","uniform","1","1","m","0","0","0","0","0","141","0","NA","141","141","0","141","141","141","141","0","11/29/15 16:00:11","Default description","no","mono","no","18","black","Ok","768","legacy","C:/Users/Martin/Desktop/Uni/Cognitive Modeling/Experiment/subject-2685329.csv","xpyriment","Interactive Ising","3.0.4","0","m","space","NA","m","288","15606","NA","288","legacy","experiment","2685329","odd","legacy","57426","471980","NA","NA","NA","550276","456373","NA","548760","549976","1599","550276","547244","547236","549976","1599","CogMod 2015 Experiment","22","6161","22","yes","1024"
"2","1600","-150","32","100","100","277","277","white","no","xpyriment","legacy","legacy","0","uniform","1","1","z","0","0","0","0","0","142","0","NA","142","142","0","142","142","142","142","0","11/29/15 16:00:11","Default description","no","mono","no","18","black","Ok","768","legacy","C:/Users/Martin/Desktop/Uni/Cognitive Modeling/Experiment/subject-2685329.csv","xpyriment","Interactive Ising","3.0.4","0","z","space","NA","z","213","15606","NA","213","legacy","experiment","2685329","odd","legacy","57426","471980","NA","NA","NA","554093","456373","NA","552243","553859","1599","554093","550726","550715","553859","1599","CogMod 2015 Experiment","23","6374","23","yes","1024"
"2","1600","-150","32","100","100","275","275","white","no","xpyriment","legacy","legacy","0","uniform","1","1","z","0","0","0","0","0","143","0","NA","143","143","0","143","143","143","143","0","11/29/15 16:00:11","Default description","no","mono","no","18","black","Ok","768","legacy","C:/Users/Martin/Desktop/Uni/Cognitive Modeling/Experiment/subject-2685329.csv","xpyriment","Interactive Ising","3.0.4","0","z","space","NA","z","248","15606","NA","248","legacy","experiment","2685329","odd","legacy","57426","471980","NA","NA","NA","557959","456373","NA","556076","557693","1599","557960","554560","554537","557693","1599","CogMod 2015 Experiment","24","6622","24","yes","1024"
"2","1600","-150","32","100","100","274","274","white","no","xpyriment","legacy","legacy","0","uniform","1","1","z","0","0","0","0","0","144","0","NA","144","144","0","144","144","144","144","0","11/29/15 16:00:11","Default description","no","mono","no","18","black","Ok","768","legacy","C:/Users/Martin/Desktop/Uni/Cognitive Modeling/Experiment/subject-2685329.csv","xpyriment","Interactive Ising","3.0.4","0","z","space","NA","z","239","15606","NA","239","legacy","experiment","2685329","odd","legacy","57426","471980","NA","NA","NA","561793","456373","NA","559926","561543","1599","561793","558410","558399","561543","1599","CogMod 2015 Experiment","25","6861","25","yes","1024"
"2","1200","150","16","100","100","273","273","white","no","xpyriment","legacy","legacy","0","uniform","1","1","m","0","0","0","0","0","145","0","NA","145","145","0","145","145","145","145","0","11/29/15 16:00:11","Default description","no","mono","no","18","black","Ok","768","legacy","C:/Users/Martin/Desktop/Uni/Cognitive Modeling/Experiment/subject-2685329.csv","xpyriment","Interactive Ising","3.0.4","0","m","space","NA","m","259","15606","NA","259","legacy","experiment","2685329","odd","legacy","57426","471980","NA","NA","NA","565244","456373","NA","563760","564976","1599","565244","562244","562235","564976","1599","CogMod 2015 Experiment","26","7120","26","yes","1024"
"2","1600","150","32","100","100","273","273","white","no","xpyriment","legacy","legacy","0","uniform","1","1","m","0","0","0","0","0","146","0","NA","146","146","0","146","146","146","146","0","11/29/15 16:00:11","Default description","no","mono","no","18","black","Ok","768","legacy","C:/Users/Martin/Desktop/Uni/Cognitive Modeling/Experiment/subject-2685329.csv","xpyriment","Interactive Ising","3.0.4","0","m","space","NA","m","277","15606","NA","277","legacy","experiment","2685329","odd","legacy","57426","471980","NA","NA","NA","569127","456373","NA","567210","568826","1599","569127","565693","565680","568826","1599","CogMod 2015 Experiment","27","7397","27","yes","1024"
"2","800","-150","8","100","100","274","274","white","no","xpyriment","legacy","legacy","0","uniform","1","1","z","0","0","0","0","0","147","0","NA","147","147","0","147","147","147","147","0","11/29/15 16:00:11","Default description","no","mono","no","18","black","Ok","768","legacy","C:/Users/Martin/Desktop/Uni/Cognitive Modeling/Experiment/subject-2685329.csv","xpyriment","Interactive Ising","3.0.4","0","z","space","NA","z","297","15606","NA","297","legacy","experiment","2685329","odd","legacy","57426","471980","NA","NA","NA","572260","456373","NA","571127","571944","1599","572260","569610","569591","571943","1599","CogMod 2015 Experiment","28","7694","28","yes","1024"
