"Block","Foreperiod","Location","NumRep","acc","accuracy","average_response_time","avg_rt","background","bidi","canvas_backend","clock_backend","color_backend","compensation","coordinates","correct","correct_GetResponse","correct_response","count_Block_1","count_Block_2","count_Block_3","count_Block_4","count_Block_5","count_ClearScreen","count_Feedback","count_Feedback_Final","count_Fixation","count_GetResponse","count_Instructions1","count_LogData","count_PreTrialWait","count_SingleTrial","count_Stimulus","count_experiment","datetime","description","font_bold","font_family","font_italic","font_size","foreground","form_response","height","keyboard_backend","logfile","mouse_backend","opensesame_codename","opensesame_version","repeat_cycle","response","response_Feedback","response_Feedback_Final","response_GetResponse","response_time","response_time_Feedback","response_time_Feedback_Final","response_time_GetResponse","sampler_backend","start","subject_nr","subject_parity","synth_backend","time_Block_1","time_Block_2","time_Block_3","time_Block_4","time_Block_5","time_ClearScreen","time_Feedback","time_Feedback_Final","time_Fixation","time_GetResponse","time_Instructions1","time_LogData","time_PreTrialWait","time_SingleTrial","time_Stimulus","time_experiment","title","total_correct","total_response_time","total_responses","uniform_coordinates","width"
"1","1200","150","15","100","100","348","348","white","no","xpyriment","legacy","legacy","0","uniform","1","1","m","0","0","0","0","0","0","NA","NA","0","0","0","0","0","0","0","0","11/30/15 08:11:58","Default description","no","mono","no","18","black","Ok","768","legacy","D:/Downloads/subject-2645432.csv","xpyriment","Interactive Ising","3.0.4","0","m","NA","NA","m","348","NA","NA","348","legacy","experiment","2645432","even","legacy","29997","NA","NA","NA","NA","33228","NA","NA","31675","32877","778","33228","30171","30135","32877","778","CogMod 2015 Experiment","1","348","1","yes","1024"
"1","400","-150","15","100","100","322","322","white","no","xpyriment","legacy","legacy","0","uniform","1","1","z","0","0","0","0","0","1","NA","NA","1","1","0","1","1","1","1","0","11/30/15 08:11:58","Default description","no","mono","no","18","black","Ok","768","legacy","D:/Downloads/subject-2645432.csv","xpyriment","Interactive Ising","3.0.4","0","z","NA","NA","z","297","NA","NA","297","legacy","experiment","2645432","even","legacy","29997","NA","NA","NA","NA","35684","NA","NA","34983","35385","778","35684","33479","33442","35385","778","CogMod 2015 Experiment","2","645","2","yes","1024"
"1","400","-150","15","100","100","317","317","white","no","xpyriment","legacy","legacy","0","uniform","1","1","z","0","0","0","0","0","2","NA","NA","2","2","0","2","2","2","2","0","11/30/15 08:11:58","Default description","no","mono","no","18","black","Ok","768","legacy","D:/Downloads/subject-2645432.csv","xpyriment","Interactive Ising","3.0.4","0","z","NA","NA","z","308","NA","NA","308","legacy","experiment","2645432","even","legacy","29997","NA","NA","NA","NA","38100","NA","NA","37388","37790","778","38100","35885","35846","37790","778","CogMod 2015 Experiment","3","953","3","yes","1024"
"1","1200","150","15","100","100","310","310","white","no","xpyriment","legacy","legacy","0","uniform","1","1","m","0","0","0","0","0","3","NA","NA","3","3","0","3","3","3","3","0","11/30/15 08:11:58","Default description","no","mono","no","18","black","Ok","768","legacy","D:/Downloads/subject-2645432.csv","xpyriment","Interactive Ising","3.0.4","0","m","NA","NA","m","290","NA","NA","290","legacy","experiment","2645432","even","legacy","29997","NA","NA","NA","NA","41308","NA","NA","39814","41016","778","41308","38311","38271","41016","778","CogMod 2015 Experiment","4","1243","4","yes","1024"
"1","1600","-150","15","100","100","301","301","white","no","xpyriment","legacy","legacy","0","uniform","1","1","z","0","0","0","0","0","4","NA","NA","4","4","0","4","4","4","4","0","11/30/15 08:11:58","Default description","no","mono","no","18","black","Ok","768","legacy","D:/Downloads/subject-2645432.csv","xpyriment","Interactive Ising","3.0.4","0","z","NA","NA","z","262","NA","NA","262","legacy","experiment","2645432","even","legacy","29997","NA","NA","NA","NA","44884","NA","NA","43017","44619","778","44884","41513","41477","44619","778","CogMod 2015 Experiment","5","1505","5","yes","1024"
"1","1600","-150","15","100","100","300","300","white","no","xpyriment","legacy","legacy","0","uniform","1","1","z","0","0","0","0","0","5","NA","NA","5","5","0","5","5","5","5","0","11/30/15 08:11:58","Default description","no","mono","no","18","black","Ok","768","legacy","D:/Downloads/subject-2645432.csv","xpyriment","Interactive Ising","3.0.4","0","z","NA","NA","z","297","NA","NA","297","legacy","experiment","2645432","even","legacy","29997","NA","NA","NA","NA","48500","NA","NA","46598","48200","778","48500","45095","45059","48200","778","CogMod 2015 Experiment","6","1802","6","yes","1024"
"1","1200","-150","15","100","100","307","307","white","no","xpyriment","legacy","legacy","0","uniform","1","1","z","0","0","0","0","0","6","NA","NA","6","6","0","6","6","6","6","0","11/30/15 08:11:58","Default description","no","mono","no","18","black","Ok","768","legacy","D:/Downloads/subject-2645432.csv","xpyriment","Interactive Ising","3.0.4","0","z","NA","NA","z","347","NA","NA","347","legacy","experiment","2645432","even","legacy","29997","NA","NA","NA","NA","51780","NA","NA","50229","51431","778","51780","48725","48685","51431","778","CogMod 2015 Experiment","7","2149","7","yes","1024"
"1","1600","150","15","100","100","308","308","white","no","xpyriment","legacy","legacy","0","uniform","1","1","m","0","0","0","0","0","7","NA","NA","7","7","0","7","7","7","7","0","11/30/15 08:11:58","Default description","no","mono","no","18","black","Ok","768","legacy","D:/Downloads/subject-2645432.csv","xpyriment","Interactive Ising","3.0.4","0","m","NA","NA","m","318","NA","NA","318","legacy","experiment","2645432","even","legacy","29997","NA","NA","NA","NA","55412","NA","NA","53490","55092","778","55412","51987","51951","55092","778","CogMod 2015 Experiment","8","2467","8","yes","1024"
"1","1200","150","15","100","100","307","307","white","no","xpyriment","legacy","legacy","0","uniform","1","1","m","0","0","0","0","0","8","NA","NA","8","8","0","8","8","8","8","0","11/30/15 08:11:58","Default description","no","mono","no","18","black","Ok","768","legacy","D:/Downloads/subject-2645432.csv","xpyriment","Interactive Ising","3.0.4","0","m","NA","NA","m","299","NA","NA","299","legacy","experiment","2645432","even","legacy","29997","NA","NA","NA","NA","58636","NA","NA","57133","58335","778","58636","55629","55589","58335","778","CogMod 2015 Experiment","9","2766","9","yes","1024"
"1","800","150","15","100","100","307","307","white","no","xpyriment","legacy","legacy","0","uniform","1","1","m","0","0","0","0","0","9","NA","NA","9","9","0","9","9","9","9","0","11/30/15 08:11:58","Default description","no","mono","no","18","black","Ok","768","legacy","D:/Downloads/subject-2645432.csv","xpyriment","Interactive Ising","3.0.4","0","m","NA","NA","m","306","NA","NA","306","legacy","experiment","2645432","even","legacy","29997","NA","NA","NA","NA","61468","NA","NA","60357","61159","778","61468","58854","58818","61159","778","CogMod 2015 Experiment","10","3072","10","yes","1024"
"1","1200","150","15","100","100","307","307","white","no","xpyriment","legacy","legacy","0","uniform","1","1","m","0","0","0","0","0","10","NA","NA","10","10","0","10","10","10","10","0","11/30/15 08:11:58","Default description","no","mono","no","18","black","Ok","768","legacy","D:/Downloads/subject-2645432.csv","xpyriment","Interactive Ising","3.0.4","0","m","NA","NA","m","312","NA","NA","312","legacy","experiment","2645432","even","legacy","29997","NA","NA","NA","NA","64740","NA","NA","63223","64425","778","64740","61721","61675","64425","778","CogMod 2015 Experiment","11","3384","11","yes","1024"
"1","800","150","15","100","100","308","308","white","no","xpyriment","legacy","legacy","0","uniform","1","1","m","0","0","0","0","0","11","NA","NA","11","11","0","11","11","11","11","0","11/30/15 08:11:58","Default description","no","mono","no","18","black","Ok","768","legacy","D:/Downloads/subject-2645432.csv","xpyriment","Interactive Ising","3.0.4","0","m","NA","NA","m","318","NA","NA","318","legacy","experiment","2645432","even","legacy","29997","NA","NA","NA","NA","67587","NA","NA","66465","67267","778","67587","64962","64926","67267","778","CogMod 2015 Experiment","12","3702","12","yes","1024"
"1","1600","150","15","100","100","308","308","white","no","xpyriment","legacy","legacy","0","uniform","1","1","m","0","0","0","0","0","12","NA","NA","12","12","0","12","12","12","12","0","11/30/15 08:11:58","Default description","no","mono","no","18","black","Ok","768","legacy","D:/Downloads/subject-2645432.csv","xpyriment","Interactive Ising","3.0.4","0","m","NA","NA","m","307","NA","NA","307","legacy","experiment","2645432","even","legacy","29997","NA","NA","NA","NA","71220","NA","NA","69309","70911","778","71220","67806","67766","70911","778","CogMod 2015 Experiment","13","4009","13","yes","1024"
"1","1600","-150","15","100","100","312","312","white","no","xpyriment","legacy","legacy","0","uniform","1","1","z","0","0","0","0","0","13","NA","NA","13","13","0","13","13","13","13","0","11/30/15 08:11:58","Default description","no","mono","no","18","black","Ok","768","legacy","D:/Downloads/subject-2645432.csv","xpyriment","Interactive Ising","3.0.4","0","z","NA","NA","z","362","NA","NA","362","legacy","experiment","2645432","even","legacy","29997","NA","NA","NA","NA","74900","NA","NA","72934","74536","778","74900","71429","71392","74536","778","CogMod 2015 Experiment","14","4371","14","yes","1024"
"1","1600","-150","15","100","100","312","312","white","no","xpyriment","legacy","legacy","0","uniform","1","1","z","0","0","0","0","0","14","NA","NA","14","14","0","14","14","14","14","0","11/30/15 08:11:58","Default description","no","mono","no","18","black","Ok","768","legacy","D:/Downloads/subject-2645432.csv","xpyriment","Interactive Ising","3.0.4","0","z","NA","NA","z","323","NA","NA","323","legacy","experiment","2645432","even","legacy","29997","NA","NA","NA","NA","78540","NA","NA","76612","78214","778","78540","75109","75073","78214","778","CogMod 2015 Experiment","15","4694","15","yes","1024"
"1","800","-150","15","100","100","315","315","white","no","xpyriment","legacy","legacy","0","uniform","1","1","z","0","0","0","0","0","15","NA","NA","15","15","0","15","15","15","15","0","11/30/15 08:11:58","Default description","no","mono","no","18","black","Ok","768","legacy","D:/Downloads/subject-2645432.csv","xpyriment","Interactive Ising","3.0.4","0","z","NA","NA","z","355","NA","NA","355","legacy","experiment","2645432","even","legacy","29997","NA","NA","NA","NA","81419","NA","NA","80260","81062","778","81419","78756","78715","81062","778","CogMod 2015 Experiment","16","5049","16","yes","1024"
"1","1200","150","15","100","100","314","314","white","no","xpyriment","legacy","legacy","0","uniform","1","1","m","0","0","0","0","0","16","NA","NA","16","16","0","16","16","16","16","0","11/30/15 08:11:58","Default description","no","mono","no","18","black","Ok","768","legacy","D:/Downloads/subject-2645432.csv","xpyriment","Interactive Ising","3.0.4","0","m","NA","NA","m","294","NA","NA","294","legacy","experiment","2645432","even","legacy","29997","NA","NA","NA","NA","84627","NA","NA","83129","84331","778","84627","81626","81589","84331","778","CogMod 2015 Experiment","17","5343","17","yes","1024"
"1","1600","150","15","100","100","313","313","white","no","xpyriment","legacy","legacy","0","uniform","1","1","m","0","0","0","0","0","17","NA","NA","17","17","0","17","17","17","17","0","11/30/15 08:11:58","Default description","no","mono","no","18","black","Ok","768","legacy","D:/Downloads/subject-2645432.csv","xpyriment","Interactive Ising","3.0.4","0","m","NA","NA","m","291","NA","NA","291","legacy","experiment","2645432","even","legacy","29997","NA","NA","NA","NA","88236","NA","NA","86341","87943","778","88236","84836","84799","87943","778","CogMod 2015 Experiment","18","5634","18","yes","1024"
"1","1600","-150","15","100","100","312","312","white","no","xpyriment","legacy","legacy","0","uniform","1","1","z","0","0","0","0","0","18","NA","NA","18","18","0","18","18","18","18","0","11/30/15 08:11:58","Default description","no","mono","no","18","black","Ok","768","legacy","D:/Downloads/subject-2645432.csv","xpyriment","Interactive Ising","3.0.4","0","z","NA","NA","z","300","NA","NA","300","legacy","experiment","2645432","even","legacy","29997","NA","NA","NA","NA","91860","NA","NA","89955","91557","778","91860","88452","88412","91557","778","CogMod 2015 Experiment","19","5934","19","yes","1024"
"1","1600","-150","15","100","100","314","314","white","no","xpyriment","legacy","legacy","0","uniform","1","1","z","0","0","0","0","0","19","NA","NA","19","19","0","19","19","19","19","0","11/30/15 08:11:58","Default description","no","mono","no","18","black","Ok","768","legacy","D:/Downloads/subject-2645432.csv","xpyriment","Interactive Ising","3.0.4","0","z","NA","NA","z","352","NA","NA","352","legacy","experiment","2645432","even","legacy","29997","NA","NA","NA","NA","95524","NA","NA","93567","95169","778","95525","92063","92026","95169","778","CogMod 2015 Experiment","20","6286","20","yes","1024"
"1","1200","150","15","100","100","313","313","white","no","xpyriment","legacy","legacy","0","uniform","1","1","m","0","0","0","0","0","20","NA","NA","20","20","0","20","20","20","20","0","11/30/15 08:11:58","Default description","no","mono","no","18","black","Ok","768","legacy","D:/Downloads/subject-2645432.csv","xpyriment","Interactive Ising","3.0.4","0","m","NA","NA","m","291","NA","NA","291","legacy","experiment","2645432","even","legacy","29997","NA","NA","NA","NA","98731","NA","NA","97236","98438","778","98731","95733","95696","98438","778","CogMod 2015 Experiment","21","6577","21","yes","1024"
"1","800","-150","15","100","100","312","312","white","no","xpyriment","legacy","legacy","0","uniform","1","1","z","0","0","0","0","0","21","NA","NA","21","21","0","21","21","21","21","0","11/30/15 08:11:58","Default description","no","mono","no","18","black","Ok","768","legacy","D:/Downloads/subject-2645432.csv","xpyriment","Interactive Ising","3.0.4","0","z","NA","NA","z","304","NA","NA","304","legacy","experiment","2645432","even","legacy","29997","NA","NA","NA","NA","101587","NA","NA","100479","101281","778","101587","98975","98933","101281","778","CogMod 2015 Experiment","22","6881","22","yes","1024"
"1","1600","-150","15","100","100","312","312","white","no","xpyriment","legacy","legacy","0","uniform","1","1","z","0","0","0","0","0","22","NA","NA","22","22","0","22","22","22","22","0","11/30/15 08:11:58","Default description","no","mono","no","18","black","Ok","768","legacy","D:/Downloads/subject-2645432.csv","xpyriment","Interactive Ising","3.0.4","0","z","NA","NA","z","301","NA","NA","301","legacy","experiment","2645432","even","legacy","29997","NA","NA","NA","NA","105228","NA","NA","103323","104925","778","105228","101820","101784","104925","778","CogMod 2015 Experiment","23","7182","23","yes","1024"
"1","1200","-150","15","100","100","313","313","white","no","xpyriment","legacy","legacy","0","uniform","1","1","z","0","0","0","0","0","23","NA","NA","23","23","0","23","23","23","23","0","11/30/15 08:11:58","Default description","no","mono","no","18","black","Ok","768","legacy","D:/Downloads/subject-2645432.csv","xpyriment","Interactive Ising","3.0.4","0","z","NA","NA","z","338","NA","NA","338","legacy","experiment","2645432","even","legacy","29997","NA","NA","NA","NA","108476","NA","NA","106933","108135","778","108476","105429","105402","108135","778","CogMod 2015 Experiment","24","7520","24","yes","1024"
"1","800","150","15","100","100","314","314","white","no","xpyriment","legacy","legacy","0","uniform","1","1","m","0","0","0","0","0","24","NA","NA","24","24","0","24","24","24","24","0","11/30/15 08:11:58","Default description","no","mono","no","18","black","Ok","768","legacy","D:/Downloads/subject-2645432.csv","xpyriment","Interactive Ising","3.0.4","0","m","NA","NA","m","345","NA","NA","345","legacy","experiment","2645432","even","legacy","29997","NA","NA","NA","NA","111339","NA","NA","110190","110992","778","111340","108687","108654","110992","778","CogMod 2015 Experiment","25","7865","25","yes","1024"
"1","1600","150","15","100","100","315","315","white","no","xpyriment","legacy","legacy","0","uniform","1","1","m","0","0","0","0","0","25","NA","NA","25","25","0","25","25","25","25","0","11/30/15 08:11:58","Default description","no","mono","no","18","black","Ok","768","legacy","D:/Downloads/subject-2645432.csv","xpyriment","Interactive Ising","3.0.4","0","m","NA","NA","m","339","NA","NA","339","legacy","experiment","2645432","even","legacy","29997","NA","NA","NA","NA","115003","NA","NA","113060","114662","778","115003","111556","111520","114662","778","CogMod 2015 Experiment","26","8204","26","yes","1024"
"1","1600","150","15","100","100","314","314","white","no","xpyriment","legacy","legacy","0","uniform","1","1","m","0","0","0","0","0","26","NA","NA","26","26","0","26","26","26","26","0","11/30/15 08:11:58","Default description","no","mono","no","18","black","Ok","768","legacy","D:/Downloads/subject-2645432.csv","xpyriment","Interactive Ising","3.0.4","0","m","NA","NA","m","298","NA","NA","298","legacy","experiment","2645432","even","legacy","29997","NA","NA","NA","NA","118619","NA","NA","116717","118319","778","118619","115214","115178","118319","778","CogMod 2015 Experiment","27","8502","27","yes","1024"
"1","400","-150","15","100","100","317","317","white","no","xpyriment","legacy","legacy","0","uniform","1","1","z","0","0","0","0","0","27","NA","NA","27","27","0","27","27","27","27","0","11/30/15 08:11:58","Default description","no","mono","no","18","black","Ok","768","legacy","D:/Downloads/subject-2645432.csv","xpyriment","Interactive Ising","3.0.4","0","z","NA","NA","z","387","NA","NA","387","legacy","experiment","2645432","even","legacy","29997","NA","NA","NA","NA","121115","NA","NA","120324","120726","778","121115","118821","118785","120726","778","CogMod 2015 Experiment","28","8889","28","yes","1024"
"1","1200","150","15","100","100","315","315","white","no","xpyriment","legacy","legacy","0","uniform","1","1","m","0","0","0","0","0","28","NA","NA","28","28","0","28","28","28","28","0","11/30/15 08:11:58","Default description","no","mono","no","18","black","Ok","768","legacy","D:/Downloads/subject-2645432.csv","xpyriment","Interactive Ising","3.0.4","0","m","NA","NA","m","253","NA","NA","253","legacy","experiment","2645432","even","legacy","29997","NA","NA","NA","NA","124276","NA","NA","122818","124020","778","124276","121315","121285","124020","778","CogMod 2015 Experiment","29","9142","29","yes","1024"
"1","1200","150","15","100","100","314","314","white","no","xpyriment","legacy","legacy","0","uniform","1","1","m","0","0","0","0","0","29","NA","NA","29","29","0","29","29","29","29","0","11/30/15 08:11:58","Default description","no","mono","no","18","black","Ok","768","legacy","D:/Downloads/subject-2645432.csv","xpyriment","Interactive Ising","3.0.4","0","m","NA","NA","m","307","NA","NA","307","legacy","experiment","2645432","even","legacy","29997","NA","NA","NA","NA","127508","NA","NA","125996","127198","778","127508","124492","124459","127198","778","CogMod 2015 Experiment","30","9449","30","yes","1024"
"1","1600","150","15","100","100","314","314","white","no","xpyriment","legacy","legacy","0","uniform","1","1","m","0","0","0","0","0","30","NA","NA","30","30","0","30","30","30","30","0","11/30/15 08:11:58","Default description","no","mono","no","18","black","Ok","768","legacy","D:/Downloads/subject-2645432.csv","xpyriment","Interactive Ising","3.0.4","0","m","NA","NA","m","305","NA","NA","305","legacy","experiment","2645432","even","legacy","29997","NA","NA","NA","NA","131115","NA","NA","129206","130808","778","131115","127703","127670","130808","778","CogMod 2015 Experiment","31","9754","31","yes","1024"
"1","1600","150","15","100","100","313","313","white","no","xpyriment","legacy","legacy","0","uniform","1","1","m","0","0","0","0","0","31","NA","NA","31","31","0","31","31","31","31","0","11/30/15 08:11:58","Default description","no","mono","no","18","black","Ok","768","legacy","D:/Downloads/subject-2645432.csv","xpyriment","Interactive Ising","3.0.4","0","m","NA","NA","m","288","NA","NA","288","legacy","experiment","2645432","even","legacy","29997","NA","NA","NA","NA","134723","NA","NA","132831","134433","778","134723","131328","131300","134433","778","CogMod 2015 Experiment","32","10042","32","yes","1024"
"1","1600","150","15","100","100","313","313","white","no","xpyriment","legacy","legacy","0","uniform","1","1","m","0","0","0","0","0","32","NA","NA","32","32","0","32","32","32","32","0","11/30/15 08:11:58","Default description","no","mono","no","18","black","Ok","768","legacy","D:/Downloads/subject-2645432.csv","xpyriment","Interactive Ising","3.0.4","0","m","NA","NA","m","291","NA","NA","291","legacy","experiment","2645432","even","legacy","29997","NA","NA","NA","NA","138363","NA","NA","136467","138069","778","138363","134965","134918","138069","778","CogMod 2015 Experiment","33","10333","33","yes","1024"
"1","1200","-150","15","100","100","313","313","white","no","xpyriment","legacy","legacy","0","uniform","1","1","z","0","0","0","0","0","33","NA","NA","33","33","0","33","33","33","33","0","11/30/15 08:11:58","Default description","no","mono","no","18","black","Ok","768","legacy","D:/Downloads/subject-2645432.csv","xpyriment","Interactive Ising","3.0.4","0","z","NA","NA","z","312","NA","NA","312","legacy","experiment","2645432","even","legacy","29997","NA","NA","NA","NA","141580","NA","NA","140063","141265","778","141580","138560","138531","141265","778","CogMod 2015 Experiment","34","10645","34","yes","1024"
"1","800","150","15","100","100","312","312","white","no","xpyriment","legacy","legacy","0","uniform","1","1","m","0","0","0","0","0","34","NA","NA","34","34","0","34","34","34","34","0","11/30/15 08:11:58","Default description","no","mono","no","18","black","Ok","768","legacy","D:/Downloads/subject-2645432.csv","xpyriment","Interactive Ising","3.0.4","0","m","NA","NA","m","283","NA","NA","283","legacy","experiment","2645432","even","legacy","29997","NA","NA","NA","NA","144403","NA","NA","143316","144118","778","144403","141811","141779","144118","778","CogMod 2015 Experiment","35","10928","35","yes","1024"
"1","800","150","15","100","100","311","311","white","no","xpyriment","legacy","legacy","0","uniform","1","1","m","0","0","0","0","0","35","NA","NA","35","35","0","35","35","35","35","0","11/30/15 08:11:58","Default description","no","mono","no","18","black","Ok","768","legacy","D:/Downloads/subject-2645432.csv","xpyriment","Interactive Ising","3.0.4","0","m","NA","NA","m","277","NA","NA","277","legacy","experiment","2645432","even","legacy","29997","NA","NA","NA","NA","147187","NA","NA","146106","146908","778","147187","144602","144571","146908","778","CogMod 2015 Experiment","36","11205","36","yes","1024"
"1","400","150","15","100","100","312","312","white","no","xpyriment","legacy","legacy","0","uniform","1","1","m","0","0","0","0","0","36","NA","NA","36","36","0","36","36","36","36","0","11/30/15 08:11:58","Default description","no","mono","no","18","black","Ok","768","legacy","D:/Downloads/subject-2645432.csv","xpyriment","Interactive Ising","3.0.4","0","m","NA","NA","m","372","NA","NA","372","legacy","experiment","2645432","even","legacy","29997","NA","NA","NA","NA","149683","NA","NA","148907","149309","778","149683","147404","147373","149309","778","CogMod 2015 Experiment","37","11577","37","yes","1024"
"1","400","-150","15","100","100","313","313","white","no","xpyriment","legacy","legacy","0","uniform","1","1","z","0","0","0","0","0","37","NA","NA","37","37","0","37","37","37","37","0","11/30/15 08:11:58","Default description","no","mono","no","18","black","Ok","768","legacy","D:/Downloads/subject-2645432.csv","xpyriment","Interactive Ising","3.0.4","0","z","NA","NA","z","339","NA","NA","339","legacy","experiment","2645432","even","legacy","29997","NA","NA","NA","NA","152139","NA","NA","151396","151798","778","152139","149893","149876","151798","778","CogMod 2015 Experiment","38","11916","38","yes","1024"
"1","400","-150","15","100","100","313","313","white","no","xpyriment","legacy","legacy","0","uniform","1","1","z","0","0","0","0","0","38","NA","NA","38","38","0","38","38","38","38","0","11/30/15 08:11:58","Default description","no","mono","no","18","black","Ok","768","legacy","D:/Downloads/subject-2645432.csv","xpyriment","Interactive Ising","3.0.4","0","z","NA","NA","z","310","NA","NA","310","legacy","experiment","2645432","even","legacy","29997","NA","NA","NA","NA","154571","NA","NA","153856","154258","778","154571","152352","152316","154258","778","CogMod 2015 Experiment","39","12226","39","yes","1024"
"1","400","150","15","100","100","312","312","white","no","xpyriment","legacy","legacy","0","uniform","1","1","m","0","0","0","0","0","39","NA","NA","39","39","0","39","39","39","39","0","11/30/15 08:11:58","Default description","no","mono","no","18","black","Ok","768","legacy","D:/Downloads/subject-2645432.csv","xpyriment","Interactive Ising","3.0.4","0","m","NA","NA","m","263","NA","NA","263","legacy","experiment","2645432","even","legacy","29997","NA","NA","NA","NA","156940","NA","NA","156272","156674","778","156940","154768","154735","156674","778","CogMod 2015 Experiment","40","12489","40","yes","1024"
"1","800","-150","15","100","100","310","310","white","no","xpyriment","legacy","legacy","0","uniform","1","1","z","0","0","0","0","0","40","NA","NA","40","40","0","40","40","40","40","0","11/30/15 08:11:58","Default description","no","mono","no","18","black","Ok","768","legacy","D:/Downloads/subject-2645432.csv","xpyriment","Interactive Ising","3.0.4","0","z","NA","NA","z","259","NA","NA","259","legacy","experiment","2645432","even","legacy","29997","NA","NA","NA","NA","159707","NA","NA","158644","159446","778","159707","157140","157112","159446","778","CogMod 2015 Experiment","41","12748","41","yes","1024"
"1","1600","150","15","100","100","309","309","white","no","xpyriment","legacy","legacy","0","uniform","1","1","m","0","0","0","0","0","41","NA","NA","41","41","0","41","41","41","41","0","11/30/15 08:11:58","Default description","no","mono","no","18","black","Ok","768","legacy","D:/Downloads/subject-2645432.csv","xpyriment","Interactive Ising","3.0.4","0","m","NA","NA","m","270","NA","NA","270","legacy","experiment","2645432","even","legacy","29997","NA","NA","NA","NA","163283","NA","NA","161409","163011","778","163283","159906","159875","163011","778","CogMod 2015 Experiment","42","13018","42","yes","1024"
"1","1200","150","15","100","100","309","309","white","no","xpyriment","legacy","legacy","0","uniform","1","1","m","0","0","0","0","0","42","NA","NA","42","42","0","42","42","42","42","0","11/30/15 08:11:58","Default description","no","mono","no","18","black","Ok","768","legacy","D:/Downloads/subject-2645432.csv","xpyriment","Interactive Ising","3.0.4","0","m","NA","NA","m","285","NA","NA","285","legacy","experiment","2645432","even","legacy","29997","NA","NA","NA","NA","166491","NA","NA","165002","166204","778","166491","163498","163470","166204","778","CogMod 2015 Experiment","43","13303","43","yes","1024"
"1","1200","150","15","100","100","309","309","white","no","xpyriment","legacy","legacy","0","uniform","1","1","m","0","0","0","0","0","43","NA","NA","43","43","0","43","43","43","43","0","11/30/15 08:11:58","Default description","no","mono","no","18","black","Ok","768","legacy","D:/Downloads/subject-2645432.csv","xpyriment","Interactive Ising","3.0.4","0","m","NA","NA","m","315","NA","NA","315","legacy","experiment","2645432","even","legacy","29997","NA","NA","NA","NA","169763","NA","NA","168243","169445","778","169763","166740","166708","169445","778","CogMod 2015 Experiment","44","13618","44","yes","1024"
"1","400","150","15","100","100","310","310","white","no","xpyriment","legacy","legacy","0","uniform","1","1","m","0","0","0","0","0","44","NA","NA","44","44","0","44","44","44","44","0","11/30/15 08:11:58","Default description","no","mono","no","18","black","Ok","768","legacy","D:/Downloads/subject-2645432.csv","xpyriment","Interactive Ising","3.0.4","0","m","NA","NA","m","343","NA","NA","343","legacy","experiment","2645432","even","legacy","29997","NA","NA","NA","NA","172227","NA","NA","171479","171881","778","172227","169975","169946","171881","778","CogMod 2015 Experiment","45","13961","45","yes","1024"
"1","1200","-150","15","100","100","309","309","white","no","xpyriment","legacy","legacy","0","uniform","1","1","z","0","0","0","0","0","45","NA","NA","45","45","0","45","45","45","45","0","11/30/15 08:11:58","Default description","no","mono","no","18","black","Ok","768","legacy","D:/Downloads/subject-2645432.csv","xpyriment","Interactive Ising","3.0.4","0","z","NA","NA","z","274","NA","NA","274","legacy","experiment","2645432","even","legacy","29997","NA","NA","NA","NA","175403","NA","NA","173925","175127","778","175404","172422","172391","175127","778","CogMod 2015 Experiment","46","14235","46","yes","1024"
"1","1600","-150","15","97.8723404255","97.8723404255","308","308","white","no","xpyriment","legacy","legacy","0","uniform","0","0","z","0","0","0","0","0","46","NA","NA","46","46","0","46","46","46","46","0","11/30/15 08:11:58","Default description","no","mono","no","18","black","Ok","768","legacy","D:/Downloads/subject-2645432.csv","xpyriment","Interactive Ising","3.0.4","0","m","NA","NA","m","285","NA","NA","285","legacy","experiment","2645432","even","legacy","29997","NA","NA","NA","NA","178995","NA","NA","177106","178708","778","178995","175603","175570","178708","778","CogMod 2015 Experiment","46","14520","47","yes","1024"
"1","1200","-150","15","97.9166666667","97.9166666667","309","309","white","no","xpyriment","legacy","legacy","0","uniform","1","1","z","0","0","0","0","0","47","NA","NA","47","47","0","47","47","47","47","0","11/30/15 08:11:58","Default description","no","mono","no","18","black","Ok","768","legacy","D:/Downloads/subject-2645432.csv","xpyriment","Interactive Ising","3.0.4","0","z","NA","NA","z","341","NA","NA","341","legacy","experiment","2645432","even","legacy","29997","NA","NA","NA","NA","182243","NA","NA","180697","181900","778","182243","179192","179160","181900","778","CogMod 2015 Experiment","47","14861","48","yes","1024"
"1","1200","-150","15","97.9591836735","97.9591836735","309","309","white","no","xpyriment","legacy","legacy","0","uniform","1","1","z","0","0","0","0","0","48","NA","NA","48","48","0","48","48","48","48","0","11/30/15 08:11:58","Default description","no","mono","no","18","black","Ok","768","legacy","D:/Downloads/subject-2645432.csv","xpyriment","Interactive Ising","3.0.4","0","z","NA","NA","z","317","NA","NA","317","legacy","experiment","2645432","even","legacy","29997","NA","NA","NA","NA","185467","NA","NA","183945","185147","778","185467","182442","182408","185147","778","CogMod 2015 Experiment","48","15178","49","yes","1024"
"1","1600","150","15","98","98","310","310","white","no","xpyriment","legacy","legacy","0","uniform","1","1","m","0","0","0","0","0","49","NA","NA","49","49","0","49","49","49","49","0","11/30/15 08:11:58","Default description","no","mono","no","18","black","Ok","768","legacy","D:/Downloads/subject-2645432.csv","xpyriment","Interactive Ising","3.0.4","0","m","NA","NA","m","329","NA","NA","329","legacy","experiment","2645432","even","legacy","29997","NA","NA","NA","NA","189107","NA","NA","187173","188775","778","189107","185669","185640","188775","778","CogMod 2015 Experiment","49","15507","50","yes","1024"
"1","800","150","15","98.0392156863","98.0392156863","310","310","white","no","xpyriment","legacy","legacy","0","uniform","1","1","m","0","0","0","0","0","50","NA","NA","50","50","0","50","50","50","50","0","11/30/15 08:11:58","Default description","no","mono","no","18","black","Ok","768","legacy","D:/Downloads/subject-2645432.csv","xpyriment","Interactive Ising","3.0.4","0","m","NA","NA","m","346","NA","NA","346","legacy","experiment","2645432","even","legacy","29997","NA","NA","NA","NA","191963","NA","NA","190813","191615","778","191963","189310","189277","191615","778","CogMod 2015 Experiment","50","15853","51","yes","1024"
"1","800","150","15","98.0769230769","98.0769230769","310","310","white","no","xpyriment","legacy","legacy","0","uniform","1","1","m","0","0","0","0","0","51","NA","NA","51","51","0","51","51","51","51","0","11/30/15 08:11:58","Default description","no","mono","no","18","black","Ok","768","legacy","D:/Downloads/subject-2645432.csv","xpyriment","Interactive Ising","3.0.4","0","m","NA","NA","m","313","NA","NA","313","legacy","experiment","2645432","even","legacy","29997","NA","NA","NA","NA","194795","NA","NA","193678","194480","778","194795","192174","192147","194480","778","CogMod 2015 Experiment","51","16166","52","yes","1024"
"1","1200","150","15","98.1132075472","98.1132075472","310","310","white","no","xpyriment","legacy","legacy","0","uniform","1","1","m","0","0","0","0","0","52","NA","NA","52","52","0","52","52","52","52","0","11/30/15 08:11:58","Default description","no","mono","no","18","black","Ok","768","legacy","D:/Downloads/subject-2645432.csv","xpyriment","Interactive Ising","3.0.4","0","m","NA","NA","m","300","NA","NA","300","legacy","experiment","2645432","even","legacy","29997","NA","NA","NA","NA","198019","NA","NA","196515","197717","778","198019","195012","194981","197717","778","CogMod 2015 Experiment","52","16466","53","yes","1024"
"1","1200","-150","15","98.1481481481","98.1481481481","310","310","white","no","xpyriment","legacy","legacy","0","uniform","1","1","z","0","0","0","0","0","53","NA","NA","53","53","0","53","53","53","53","0","11/30/15 08:11:58","Default description","no","mono","no","18","black","Ok","768","legacy","D:/Downloads/subject-2645432.csv","xpyriment","Interactive Ising","3.0.4","0","z","NA","NA","z","323","NA","NA","323","legacy","experiment","2645432","even","legacy","29997","NA","NA","NA","NA","201259","NA","NA","199731","200933","778","201260","198227","198195","200933","778","CogMod 2015 Experiment","53","16789","54","yes","1024"
"1","1200","-150","15","98.1818181818","98.1818181818","310","310","white","no","xpyriment","legacy","legacy","0","uniform","1","1","z","0","0","0","0","0","54","NA","NA","54","54","0","54","54","54","54","0","11/30/15 08:11:58","Default description","no","mono","no","18","black","Ok","768","legacy","D:/Downloads/subject-2645432.csv","xpyriment","Interactive Ising","3.0.4","0","z","NA","NA","z","279","NA","NA","279","legacy","experiment","2645432","even","legacy","29997","NA","NA","NA","NA","204459","NA","NA","202975","204177","778","204459","201472","201439","204177","778","CogMod 2015 Experiment","54","17068","55","yes","1024"
"1","1600","150","15","98.2142857143","98.2142857143","310","310","white","no","xpyriment","legacy","legacy","0","uniform","1","1","m","0","0","0","0","0","55","NA","NA","55","55","0","55","55","55","55","0","11/30/15 08:11:58","Default description","no","mono","no","18","black","Ok","768","legacy","D:/Downloads/subject-2645432.csv","xpyriment","Interactive Ising","3.0.4","0","m","NA","NA","m","301","NA","NA","301","legacy","experiment","2645432","even","legacy","29997","NA","NA","NA","NA","208066","NA","NA","206161","207763","778","208066","204658","204628","207763","778","CogMod 2015 Experiment","55","17369","56","yes","1024"
"1","400","150","15","98.2456140351","98.2456140351","311","311","white","no","xpyriment","legacy","legacy","0","uniform","1","1","m","0","0","0","0","0","56","NA","NA","56","56","0","56","56","56","56","0","11/30/15 08:11:58","Default description","no","mono","no","18","black","Ok","768","legacy","D:/Downloads/subject-2645432.csv","xpyriment","Interactive Ising","3.0.4","0","m","NA","NA","m","384","NA","NA","384","legacy","experiment","2645432","even","legacy","29997","NA","NA","NA","NA","210563","NA","NA","209775","210177","778","210563","208271","208239","210177","778","CogMod 2015 Experiment","56","17753","57","yes","1024"
"1","800","-150","15","98.275862069","98.275862069","311","311","white","no","xpyriment","legacy","legacy","0","uniform","1","1","z","0","0","0","0","0","57","NA","NA","57","57","0","57","57","57","57","0","11/30/15 08:11:58","Default description","no","mono","no","18","black","Ok","768","legacy","D:/Downloads/subject-2645432.csv","xpyriment","Interactive Ising","3.0.4","0","z","NA","NA","z","322","NA","NA","322","legacy","experiment","2645432","even","legacy","29997","NA","NA","NA","NA","213387","NA","NA","212261","213063","778","213387","210757","210738","213063","778","CogMod 2015 Experiment","57","18075","58","yes","1024"
"1","400","150","15","98.3050847458","98.3050847458","311","311","white","no","xpyriment","legacy","legacy","0","uniform","1","1","m","0","0","0","0","0","58","NA","NA","58","58","0","58","58","58","58","0","11/30/15 08:11:58","Default description","no","mono","no","18","black","Ok","768","legacy","D:/Downloads/subject-2645432.csv","xpyriment","Interactive Ising","3.0.4","0","m","NA","NA","m","324","NA","NA","324","legacy","experiment","2645432","even","legacy","29997","NA","NA","NA","NA","215827","NA","NA","215098","215500","778","215827","213595","213578","215500","778","CogMod 2015 Experiment","58","18399","59","yes","1024"
"1","400","150","15","98.3333333333","98.3333333333","311","311","white","no","xpyriment","legacy","legacy","0","uniform","1","1","m","0","0","0","0","0","59","NA","NA","59","59","0","59","59","59","59","0","11/30/15 08:11:58","Default description","no","mono","no","18","black","Ok","768","legacy","D:/Downloads/subject-2645432.csv","xpyriment","Interactive Ising","3.0.4","0","m","NA","NA","m","294","NA","NA","294","legacy","experiment","2645432","even","legacy","29997","NA","NA","NA","NA","218219","NA","NA","217520","217922","778","218219","216017","215999","217922","778","CogMod 2015 Experiment","59","18693","60","yes","1024"
"1","1600","-150","15","98.3606557377","98.3606557377","311","311","white","no","xpyriment","legacy","legacy","0","uniform","1","1","z","0","0","0","0","0","60","NA","NA","60","60","0","60","60","60","60","0","11/30/15 08:11:58","Default description","no","mono","no","18","black","Ok","768","legacy","D:/Downloads/subject-2645432.csv","xpyriment","Interactive Ising","3.0.4","0","z","NA","NA","z","284","NA","NA","284","legacy","experiment","2645432","even","legacy","29997","NA","NA","NA","NA","221818","NA","NA","219930","221532","778","221818","218426","218391","221532","778","CogMod 2015 Experiment","60","18977","61","yes","1024"
"1","800","-150","15","98.3870967742","98.3870967742","311","311","white","no","xpyriment","legacy","legacy","0","uniform","1","1","z","0","0","0","0","0","61","NA","NA","61","61","0","61","61","61","61","0","11/30/15 08:11:58","Default description","no","mono","no","18","black","Ok","768","legacy","D:/Downloads/subject-2645432.csv","xpyriment","Interactive Ising","3.0.4","0","z","NA","NA","z","318","NA","NA","318","legacy","experiment","2645432","even","legacy","29997","NA","NA","NA","NA","224707","NA","NA","223584","224386","778","224707","222081","222053","224386","778","CogMod 2015 Experiment","61","19295","62","yes","1024"
"1","400","-150","15","98.4126984127","98.4126984127","310","310","white","no","xpyriment","legacy","legacy","0","uniform","1","1","z","0","0","0","0","0","62","NA","NA","62","62","0","62","62","62","62","0","11/30/15 08:11:58","Default description","no","mono","no","18","black","Ok","768","legacy","D:/Downloads/subject-2645432.csv","xpyriment","Interactive Ising","3.0.4","0","z","NA","NA","z","296","NA","NA","296","legacy","experiment","2645432","even","legacy","29997","NA","NA","NA","NA","227131","NA","NA","226431","226833","778","227131","224928","224895","226833","778","CogMod 2015 Experiment","62","19591","63","yes","1024"
"1","1200","150","15","98.4375","98.4375","311","311","white","no","xpyriment","legacy","legacy","0","uniform","1","1","m","0","0","0","0","0","63","NA","NA","63","63","0","63","63","63","63","0","11/30/15 08:11:58","Default description","no","mono","no","18","black","Ok","768","legacy","D:/Downloads/subject-2645432.csv","xpyriment","Interactive Ising","3.0.4","0","m","NA","NA","m","317","NA","NA","317","legacy","experiment","2645432","even","legacy","29997","NA","NA","NA","NA","230363","NA","NA","228842","230044","778","230363","227338","227305","230044","778","CogMod 2015 Experiment","63","19908","64","yes","1024"
"1","1200","150","15","98.4615384615","98.4615384615","311","311","white","no","xpyriment","legacy","legacy","0","uniform","1","1","m","0","0","0","0","0","64","NA","NA","64","64","0","64","64","64","64","0","11/30/15 08:11:58","Default description","no","mono","no","18","black","Ok","768","legacy","D:/Downloads/subject-2645432.csv","xpyriment","Interactive Ising","3.0.4","0","m","NA","NA","m","325","NA","NA","325","legacy","experiment","2645432","even","legacy","29997","NA","NA","NA","NA","233603","NA","NA","232073","233275","778","233603","230570","230538","233275","778","CogMod 2015 Experiment","64","20233","65","yes","1024"
"1","1200","-150","15","98.4848484848","98.4848484848","311","311","white","no","xpyriment","legacy","legacy","0","uniform","1","1","z","0","0","0","0","0","65","NA","NA","65","65","0","65","65","65","65","0","11/30/15 08:11:58","Default description","no","mono","no","18","black","Ok","768","legacy","D:/Downloads/subject-2645432.csv","xpyriment","Interactive Ising","3.0.4","0","z","NA","NA","z","322","NA","NA","322","legacy","experiment","2645432","even","legacy","29997","NA","NA","NA","NA","236843","NA","NA","235316","236518","778","236844","233811","233778","236518","778","CogMod 2015 Experiment","65","20555","66","yes","1024"
"1","800","-150","15","98.5074626866","98.5074626866","311","311","white","no","xpyriment","legacy","legacy","0","uniform","1","1","z","0","0","0","0","0","66","NA","NA","66","66","0","66","66","66","66","0","11/30/15 08:11:58","Default description","no","mono","no","18","black","Ok","768","legacy","D:/Downloads/subject-2645432.csv","xpyriment","Interactive Ising","3.0.4","0","z","NA","NA","z","339","NA","NA","339","legacy","experiment","2645432","even","legacy","29997","NA","NA","NA","NA","239698","NA","NA","238555","239357","778","239698","237052","237022","239357","778","CogMod 2015 Experiment","66","20894","67","yes","1024"
"1","1600","-150","15","98.5294117647","98.5294117647","312","312","white","no","xpyriment","legacy","legacy","0","uniform","1","1","z","0","0","0","0","0","67","NA","NA","67","67","0","67","67","67","67","0","11/30/15 08:11:58","Default description","no","mono","no","18","black","Ok","768","legacy","D:/Downloads/subject-2645432.csv","xpyriment","Interactive Ising","3.0.4","0","z","NA","NA","z","337","NA","NA","337","legacy","experiment","2645432","even","legacy","29997","NA","NA","NA","NA","243354","NA","NA","241413","243015","778","243354","239908","239875","243015","778","CogMod 2015 Experiment","67","21231","68","yes","1024"
"1","1200","-150","15","98.5507246377","98.5507246377","311","311","white","no","xpyriment","legacy","legacy","0","uniform","1","1","z","0","0","0","0","0","68","NA","NA","68","68","0","68","68","68","68","0","11/30/15 08:11:58","Default description","no","mono","no","18","black","Ok","768","legacy","D:/Downloads/subject-2645432.csv","xpyriment","Interactive Ising","3.0.4","0","z","NA","NA","z","289","NA","NA","289","legacy","experiment","2645432","even","legacy","29997","NA","NA","NA","NA","246547","NA","NA","245054","246256","778","246547","243551","243523","246256","778","CogMod 2015 Experiment","68","21520","69","yes","1024"
"1","400","-150","15","98.5714285714","98.5714285714","312","312","white","no","xpyriment","legacy","legacy","0","uniform","1","1","z","0","0","0","0","0","69","NA","NA","69","69","0","69","69","69","69","0","11/30/15 08:11:58","Default description","no","mono","no","18","black","Ok","768","legacy","D:/Downloads/subject-2645432.csv","xpyriment","Interactive Ising","3.0.4","0","z","NA","NA","z","325","NA","NA","325","legacy","experiment","2645432","even","legacy","29997","NA","NA","NA","NA","248979","NA","NA","248249","248651","778","248979","246745","246714","248651","778","CogMod 2015 Experiment","69","21845","70","yes","1024"
"1","400","-150","15","98.5915492958","98.5915492958","312","312","white","no","xpyriment","legacy","legacy","0","uniform","1","1","z","0","0","0","0","0","70","NA","NA","70","70","0","70","70","70","70","0","11/30/15 08:11:58","Default description","no","mono","no","18","black","Ok","768","legacy","D:/Downloads/subject-2645432.csv","xpyriment","Interactive Ising","3.0.4","0","z","NA","NA","z","328","NA","NA","328","legacy","experiment","2645432","even","legacy","29997","NA","NA","NA","NA","251419","NA","NA","250686","251088","778","251419","249183","249153","251088","778","CogMod 2015 Experiment","70","22173","71","yes","1024"
"1","1600","-150","15","98.6111111111","98.6111111111","312","312","white","no","xpyriment","legacy","legacy","0","uniform","1","1","z","0","0","0","0","0","71","NA","NA","71","71","0","71","71","71","71","0","11/30/15 08:11:58","Default description","no","mono","no","18","black","Ok","768","legacy","D:/Downloads/subject-2645432.csv","xpyriment","Interactive Ising","3.0.4","0","z","NA","NA","z","313","NA","NA","313","legacy","experiment","2645432","even","legacy","29997","NA","NA","NA","NA","255050","NA","NA","253133","254735","778","255050","251630","251597","254735","778","CogMod 2015 Experiment","71","22486","72","yes","1024"
"1","800","-150","15","98.6301369863","98.6301369863","312","312","white","no","xpyriment","legacy","legacy","0","uniform","1","1","z","0","0","0","0","0","72","NA","NA","72","72","0","72","72","72","72","0","11/30/15 08:11:58","Default description","no","mono","no","18","black","Ok","768","legacy","D:/Downloads/subject-2645432.csv","xpyriment","Interactive Ising","3.0.4","0","z","NA","NA","z","301","NA","NA","301","legacy","experiment","2645432","even","legacy","29997","NA","NA","NA","NA","257874","NA","NA","256769","257571","778","257874","255266","255235","257571","778","CogMod 2015 Experiment","72","22787","73","yes","1024"
"1","400","-150","15","98.6486486486","98.6486486486","312","312","white","no","xpyriment","legacy","legacy","0","uniform","1","1","z","0","0","0","0","0","73","NA","NA","73","73","0","73","73","73","73","0","11/30/15 08:11:58","Default description","no","mono","no","18","black","Ok","768","legacy","D:/Downloads/subject-2645432.csv","xpyriment","Interactive Ising","3.0.4","0","z","NA","NA","z","324","NA","NA","324","legacy","experiment","2645432","even","legacy","29997","NA","NA","NA","NA","260314","NA","NA","259586","259988","778","260314","258083","258049","259988","778","CogMod 2015 Experiment","73","23111","74","yes","1024"
"1","1200","-150","15","98.6666666667","98.6666666667","312","312","white","no","xpyriment","legacy","legacy","0","uniform","1","1","z","0","0","0","0","0","74","NA","NA","74","74","0","74","74","74","74","0","11/30/15 08:11:58","Default description","no","mono","no","18","black","Ok","768","legacy","D:/Downloads/subject-2645432.csv","xpyriment","Interactive Ising","3.0.4","0","z","NA","NA","z","295","NA","NA","295","legacy","experiment","2645432","even","legacy","29997","NA","NA","NA","NA","263555","NA","NA","262054","263257","778","263555","260550","260521","263256","778","CogMod 2015 Experiment","74","23406","75","yes","1024"
"1","800","150","15","98.6842105263","98.6842105263","312","312","white","no","xpyriment","legacy","legacy","0","uniform","1","1","m","0","0","0","0","0","75","NA","NA","75","75","0","75","75","75","75","0","11/30/15 08:11:58","Default description","no","mono","no","18","black","Ok","768","legacy","D:/Downloads/subject-2645432.csv","xpyriment","Interactive Ising","3.0.4","0","m","NA","NA","m","358","NA","NA","358","legacy","experiment","2645432","even","legacy","29997","NA","NA","NA","NA","266419","NA","NA","265256","266058","778","266419","263753","263722","266058","778","CogMod 2015 Experiment","75","23764","76","yes","1024"
"1","1600","150","15","98.7012987013","98.7012987013","312","312","white","no","xpyriment","legacy","legacy","0","uniform","1","1","m","0","0","0","0","0","76","NA","NA","76","76","0","76","76","76","76","0","11/30/15 08:11:58","Default description","no","mono","no","18","black","Ok","768","legacy","D:/Downloads/subject-2645432.csv","xpyriment","Interactive Ising","3.0.4","0","m","NA","NA","m","331","NA","NA","331","legacy","experiment","2645432","even","legacy","29997","NA","NA","NA","NA","270082","NA","NA","268147","269749","778","270082","266645","266597","269749","778","CogMod 2015 Experiment","76","24095","77","yes","1024"
"1","400","-150","15","98.7179487179","98.7179487179","312","312","white","no","xpyriment","legacy","legacy","0","uniform","1","1","z","0","0","0","0","0","77","NA","NA","77","77","0","77","77","77","77","0","11/30/15 08:11:58","Default description","no","mono","no","18","black","Ok","768","legacy","D:/Downloads/subject-2645432.csv","xpyriment","Interactive Ising","3.0.4","0","z","NA","NA","z","291","NA","NA","291","legacy","experiment","2645432","even","legacy","29997","NA","NA","NA","NA","272482","NA","NA","271787","272189","778","272482","270284","270250","272189","778","CogMod 2015 Experiment","77","24386","78","yes","1024"
"1","1600","-150","15","98.7341772152","98.7341772152","312","312","white","no","xpyriment","legacy","legacy","0","uniform","1","1","z","0","0","0","0","0","78","NA","NA","78","78","0","78","78","78","78","0","11/30/15 08:11:58","Default description","no","mono","no","18","black","Ok","768","legacy","D:/Downloads/subject-2645432.csv","xpyriment","Interactive Ising","3.0.4","0","z","NA","NA","z","319","NA","NA","319","legacy","experiment","2645432","even","legacy","29997","NA","NA","NA","NA","276114","NA","NA","274191","275793","778","276114","272687","272655","275793","778","CogMod 2015 Experiment","78","24705","79","yes","1024"
"1","1600","150","15","98.75","98.75","312","312","white","no","xpyriment","legacy","legacy","0","uniform","1","1","m","0","0","0","0","0","79","NA","NA","79","79","0","79","79","79","79","0","11/30/15 08:11:58","Default description","no","mono","no","18","black","Ok","768","legacy","D:/Downloads/subject-2645432.csv","xpyriment","Interactive Ising","3.0.4","0","m","NA","NA","m","332","NA","NA","332","legacy","experiment","2645432","even","legacy","29997","NA","NA","NA","NA","279763","NA","NA","277826","279428","778","279763","276323","276291","279428","778","CogMod 2015 Experiment","79","25037","80","yes","1024"
"1","1200","-150","15","98.7654320988","98.7654320988","312","312","white","no","xpyriment","legacy","legacy","0","uniform","1","1","z","0","0","0","0","0","80","NA","NA","80","80","0","80","80","80","80","0","11/30/15 08:11:58","Default description","no","mono","no","18","black","Ok","768","legacy","D:/Downloads/subject-2645432.csv","xpyriment","Interactive Ising","3.0.4","0","z","NA","NA","z","282","NA","NA","282","legacy","experiment","2645432","even","legacy","29997","NA","NA","NA","NA","282954","NA","NA","281468","282670","778","282955","279964","279932","282670","778","CogMod 2015 Experiment","80","25319","81","yes","1024"
"1","1600","-150","15","98.7804878049","98.7804878049","312","312","white","no","xpyriment","legacy","legacy","0","uniform","1","1","z","0","0","0","0","0","81","NA","NA","81","81","0","81","81","81","81","0","11/30/15 08:11:58","Default description","no","mono","no","18","black","Ok","768","legacy","D:/Downloads/subject-2645432.csv","xpyriment","Interactive Ising","3.0.4","0","z","NA","NA","z","277","NA","NA","277","legacy","experiment","2645432","even","legacy","29997","NA","NA","NA","NA","286538","NA","NA","284657","286259","778","286538","283154","283122","286259","778","CogMod 2015 Experiment","81","25596","82","yes","1024"
"1","400","150","15","98.7951807229","98.7951807229","312","312","white","no","xpyriment","legacy","legacy","0","uniform","1","1","m","0","0","0","0","0","82","NA","NA","82","82","0","82","82","82","82","0","11/30/15 08:11:58","Default description","no","mono","no","18","black","Ok","768","legacy","D:/Downloads/subject-2645432.csv","xpyriment","Interactive Ising","3.0.4","0","m","NA","NA","m","347","NA","NA","347","legacy","experiment","2645432","even","legacy","29997","NA","NA","NA","NA","289018","NA","NA","288267","288669","778","289018","286763","286729","288669","778","CogMod 2015 Experiment","82","25943","83","yes","1024"
"1","400","150","15","98.8095238095","98.8095238095","313","313","white","no","xpyriment","legacy","legacy","0","uniform","1","1","m","0","0","0","0","0","83","NA","NA","83","83","0","83","83","83","83","0","11/30/15 08:11:58","Default description","no","mono","no","18","black","Ok","768","legacy","D:/Downloads/subject-2645432.csv","xpyriment","Interactive Ising","3.0.4","0","m","NA","NA","m","349","NA","NA","349","legacy","experiment","2645432","even","legacy","29997","NA","NA","NA","NA","291474","NA","NA","290721","291123","778","291474","289218","289187","291123","778","CogMod 2015 Experiment","83","26292","84","yes","1024"
"1","400","150","15","98.8235294118","98.8235294118","312","312","white","no","xpyriment","legacy","legacy","0","uniform","1","1","m","0","0","0","0","0","84","NA","NA","84","84","0","84","84","84","84","0","11/30/15 08:11:58","Default description","no","mono","no","18","black","Ok","768","legacy","D:/Downloads/subject-2645432.csv","xpyriment","Interactive Ising","3.0.4","0","m","NA","NA","m","305","NA","NA","305","legacy","experiment","2645432","even","legacy","29997","NA","NA","NA","NA","293898","NA","NA","293188","293590","778","293898","291684","291652","293590","778","CogMod 2015 Experiment","84","26597","85","yes","1024"
"1","800","-150","15","98.8372093023","98.8372093023","312","312","white","no","xpyriment","legacy","legacy","0","uniform","1","1","z","0","0","0","0","0","85","NA","NA","85","85","0","85","85","85","85","0","11/30/15 08:11:58","Default description","no","mono","no","18","black","Ok","768","legacy","D:/Downloads/subject-2645432.csv","xpyriment","Interactive Ising","3.0.4","0","z","NA","NA","z","305","NA","NA","305","legacy","experiment","2645432","even","legacy","29997","NA","NA","NA","NA","296707","NA","NA","295597","296399","778","296707","294093","294061","296399","778","CogMod 2015 Experiment","85","26902","86","yes","1024"
"1","1600","-150","15","98.8505747126","98.8505747126","312","312","white","no","xpyriment","legacy","legacy","0","uniform","1","1","z","0","0","0","0","0","86","NA","NA","86","86","0","86","86","86","86","0","11/30/15 08:11:58","Default description","no","mono","no","18","black","Ok","768","legacy","D:/Downloads/subject-2645432.csv","xpyriment","Interactive Ising","3.0.4","0","z","NA","NA","z","313","NA","NA","313","legacy","experiment","2645432","even","legacy","29997","NA","NA","NA","NA","300346","NA","NA","298429","300031","778","300346","296926","296893","300031","778","CogMod 2015 Experiment","86","27215","87","yes","1024"
"1","400","150","15","98.8636363636","98.8636363636","313","313","white","no","xpyriment","legacy","legacy","0","uniform","1","1","m","0","0","0","0","0","87","NA","NA","87","87","0","87","87","87","87","0","11/30/15 08:11:58","Default description","no","mono","no","18","black","Ok","768","legacy","D:/Downloads/subject-2645432.csv","xpyriment","Interactive Ising","3.0.4","0","m","NA","NA","m","334","NA","NA","334","legacy","experiment","2645432","even","legacy","29997","NA","NA","NA","NA","302794","NA","NA","302056","302458","778","302794","300552","300520","302458","778","CogMod 2015 Experiment","87","27549","88","yes","1024"
"1","1200","-150","15","98.8764044944","98.8764044944","312","312","white","no","xpyriment","legacy","legacy","0","uniform","1","1","z","0","0","0","0","0","88","NA","NA","88","88","0","88","88","88","88","0","11/30/15 08:11:58","Default description","no","mono","no","18","black","Ok","768","legacy","D:/Downloads/subject-2645432.csv","xpyriment","Interactive Ising","3.0.4","0","z","NA","NA","z","306","NA","NA","306","legacy","experiment","2645432","even","legacy","29997","NA","NA","NA","NA","306010","NA","NA","304500","305702","778","306010","302997","302963","305702","778","CogMod 2015 Experiment","88","27855","89","yes","1024"
"1","800","-150","15","98.8888888889","98.8888888889","313","313","white","no","xpyriment","legacy","legacy","0","uniform","1","1","z","0","0","0","0","0","89","NA","NA","89","89","0","89","89","89","89","0","11/30/15 08:11:58","Default description","no","mono","no","18","black","Ok","768","legacy","D:/Downloads/subject-2645432.csv","xpyriment","Interactive Ising","3.0.4","0","z","NA","NA","z","341","NA","NA","341","legacy","experiment","2645432","even","legacy","29997","NA","NA","NA","NA","308858","NA","NA","307713","308515","778","308858","306209","306180","308515","778","CogMod 2015 Experiment","89","28196","90","yes","1024"
"1","400","-150","15","98.9010989011","98.9010989011","313","313","white","no","xpyriment","legacy","legacy","0","uniform","1","1","z","0","0","0","0","0","90","NA","NA","90","90","0","90","90","90","90","0","11/30/15 08:11:58","Default description","no","mono","no","18","black","Ok","768","legacy","D:/Downloads/subject-2645432.csv","xpyriment","Interactive Ising","3.0.4","0","z","NA","NA","z","307","NA","NA","307","legacy","experiment","2645432","even","legacy","29997","NA","NA","NA","NA","311362","NA","NA","310649","311052","778","311362","309146","309114","311052","778","CogMod 2015 Experiment","90","28503","91","yes","1024"
"1","800","150","15","98.9130434783","98.9130434783","314","314","white","no","xpyriment","legacy","legacy","0","uniform","1","1","m","0","0","0","0","0","91","NA","NA","91","91","0","91","91","91","91","0","11/30/15 08:11:58","Default description","no","mono","no","18","black","Ok","768","legacy","D:/Downloads/subject-2645432.csv","xpyriment","Interactive Ising","3.0.4","0","m","NA","NA","m","463","NA","NA","463","legacy","experiment","2645432","even","legacy","29997","NA","NA","NA","NA","314330","NA","NA","313063","313865","778","314331","311559","311531","313865","778","CogMod 2015 Experiment","91","28966","92","yes","1024"
"1","1200","150","15","98.9247311828","98.9247311828","314","314","white","no","xpyriment","legacy","legacy","0","uniform","1","1","m","0","0","0","0","0","92","NA","NA","92","92","0","92","92","92","92","0","11/30/15 08:11:58","Default description","no","mono","no","18","black","Ok","768","legacy","D:/Downloads/subject-2645432.csv","xpyriment","Interactive Ising","3.0.4","0","m","NA","NA","m","288","NA","NA","288","legacy","experiment","2645432","even","legacy","29997","NA","NA","NA","NA","317530","NA","NA","316038","317240","778","317530","314535","314503","317240","778","CogMod 2015 Experiment","92","29254","93","yes","1024"
"1","400","-150","15","98.9361702128","98.9361702128","314","314","white","no","xpyriment","legacy","legacy","0","uniform","1","1","z","0","0","0","0","0","93","NA","NA","93","93","0","93","93","93","93","0","11/30/15 08:11:58","Default description","no","mono","no","18","black","Ok","768","legacy","D:/Downloads/subject-2645432.csv","xpyriment","Interactive Ising","3.0.4","0","z","NA","NA","z","311","NA","NA","311","legacy","experiment","2645432","even","legacy","29997","NA","NA","NA","NA","319946","NA","NA","319231","319633","778","319947","317728","317695","319633","778","CogMod 2015 Experiment","93","29565","94","yes","1024"
"1","400","-150","15","98.9473684211","98.9473684211","314","314","white","no","xpyriment","legacy","legacy","0","uniform","1","1","z","0","0","0","0","0","94","NA","NA","94","94","0","94","94","94","94","0","11/30/15 08:11:58","Default description","no","mono","no","18","black","Ok","768","legacy","D:/Downloads/subject-2645432.csv","xpyriment","Interactive Ising","3.0.4","0","z","NA","NA","z","312","NA","NA","312","legacy","experiment","2645432","even","legacy","29997","NA","NA","NA","NA","322370","NA","NA","321654","322056","778","322370","320151","320118","322056","778","CogMod 2015 Experiment","94","29877","95","yes","1024"
"1","800","150","15","98.9583333333","98.9583333333","314","314","white","no","xpyriment","legacy","legacy","0","uniform","1","1","m","0","0","0","0","0","95","NA","NA","95","95","0","95","95","95","95","0","11/30/15 08:11:58","Default description","no","mono","no","18","black","Ok","768","legacy","D:/Downloads/subject-2645432.csv","xpyriment","Interactive Ising","3.0.4","0","m","NA","NA","m","296","NA","NA","296","legacy","experiment","2645432","even","legacy","29997","NA","NA","NA","NA","325178","NA","NA","324077","324879","778","325178","322574","322545","324879","778","CogMod 2015 Experiment","95","30173","96","yes","1024"
"1","400","150","15","98.9690721649","98.9690721649","314","314","white","no","xpyriment","legacy","legacy","0","uniform","1","1","m","0","0","0","0","0","96","NA","NA","96","96","0","96","96","96","96","0","11/30/15 08:11:58","Default description","no","mono","no","18","black","Ok","768","legacy","D:/Downloads/subject-2645432.csv","xpyriment","Interactive Ising","3.0.4","0","m","NA","NA","m","321","NA","NA","321","legacy","experiment","2645432","even","legacy","29997","NA","NA","NA","NA","327618","NA","NA","326892","327294","778","327618","325388","325357","327294","778","CogMod 2015 Experiment","96","30494","97","yes","1024"
"1","400","150","15","98.9795918367","98.9795918367","314","314","white","no","xpyriment","legacy","legacy","0","uniform","1","1","m","0","0","0","0","0","97","NA","NA","97","97","0","97","97","97","97","0","11/30/15 08:11:58","Default description","no","mono","no","18","black","Ok","768","legacy","D:/Downloads/subject-2645432.csv","xpyriment","Interactive Ising","3.0.4","0","m","NA","NA","m","374","NA","NA","374","legacy","experiment","2645432","even","legacy","29997","NA","NA","NA","NA","330081","NA","NA","329303","329705","778","330082","327799","327783","329705","778","CogMod 2015 Experiment","97","30868","98","yes","1024"
"1","400","150","15","98.9898989899","98.9898989899","314","314","white","no","xpyriment","legacy","legacy","0","uniform","1","1","m","0","0","0","0","0","98","NA","NA","98","98","0","98","98","98","98","0","11/30/15 08:11:58","Default description","no","mono","no","18","black","Ok","768","legacy","D:/Downloads/subject-2645432.csv","xpyriment","Interactive Ising","3.0.4","0","m","NA","NA","m","293","NA","NA","293","legacy","experiment","2645432","even","legacy","29997","NA","NA","NA","NA","332506","NA","NA","331809","332211","778","332506","330307","330274","332210","778","CogMod 2015 Experiment","98","31161","99","yes","1024"
"1","800","-150","15","99","99","314","314","white","no","xpyriment","legacy","legacy","0","uniform","1","1","z","0","0","0","0","0","99","NA","NA","99","99","0","99","99","99","99","0","11/30/15 08:11:58","Default description","no","mono","no","18","black","Ok","768","legacy","D:/Downloads/subject-2645432.csv","xpyriment","Interactive Ising","3.0.4","0","z","NA","NA","z","334","NA","NA","334","legacy","experiment","2645432","even","legacy","29997","NA","NA","NA","NA","335354","NA","NA","334216","335018","778","335354","332713","332691","335018","778","CogMod 2015 Experiment","99","31495","100","yes","1024"
"1","1200","-150","15","99.0099009901","99.0099009901","315","315","white","no","xpyriment","legacy","legacy","0","uniform","1","1","z","0","0","0","0","0","100","NA","NA","100","100","0","100","100","100","100","0","11/30/15 08:11:58","Default description","no","mono","no","18","black","Ok","768","legacy","D:/Downloads/subject-2645432.csv","xpyriment","Interactive Ising","3.0.4","0","z","NA","NA","z","376","NA","NA","376","legacy","experiment","2645432","even","legacy","29997","NA","NA","NA","NA","338650","NA","NA","337070","338272","778","338650","335566","335533","338272","778","CogMod 2015 Experiment","100","31871","101","yes","1024"
"1","1600","150","15","99.0196078431","99.0196078431","315","315","white","no","xpyriment","legacy","legacy","0","uniform","1","1","m","0","0","0","0","0","101","NA","NA","101","101","0","101","101","101","101","0","11/30/15 08:11:58","Default description","no","mono","no","18","black","Ok","768","legacy","D:/Downloads/subject-2645432.csv","xpyriment","Interactive Ising","3.0.4","0","m","NA","NA","m","311","NA","NA","311","legacy","experiment","2645432","even","legacy","29997","NA","NA","NA","NA","342258","NA","NA","340342","341944","778","342258","338839","338812","341944","778","CogMod 2015 Experiment","101","32182","102","yes","1024"
"1","400","150","15","99.0291262136","99.0291262136","315","315","white","no","xpyriment","legacy","legacy","0","uniform","1","1","m","0","0","0","0","0","102","NA","NA","102","102","0","102","102","102","102","0","11/30/15 08:11:58","Default description","no","mono","no","18","black","Ok","768","legacy","D:/Downloads/subject-2645432.csv","xpyriment","Interactive Ising","3.0.4","0","m","NA","NA","m","327","NA","NA","327","legacy","experiment","2645432","even","legacy","29997","NA","NA","NA","NA","344698","NA","NA","343966","344368","778","344698","342462","342429","344368","778","CogMod 2015 Experiment","102","32509","103","yes","1024"
"1","1600","-150","15","99.0384615385","99.0384615385","315","315","white","no","xpyriment","legacy","legacy","0","uniform","1","1","z","0","0","0","0","0","103","NA","NA","103","103","0","103","103","103","103","0","11/30/15 08:11:58","Default description","no","mono","no","18","black","Ok","768","legacy","D:/Downloads/subject-2645432.csv","xpyriment","Interactive Ising","3.0.4","0","z","NA","NA","z","327","NA","NA","327","legacy","experiment","2645432","even","legacy","29997","NA","NA","NA","NA","348345","NA","NA","346414","348016","778","348345","344911","344880","348016","778","CogMod 2015 Experiment","103","32836","104","yes","1024"
"1","400","150","15","99.0476190476","99.0476190476","315","315","white","no","xpyriment","legacy","legacy","0","uniform","1","1","m","0","0","0","0","0","104","NA","NA","104","104","0","104","104","104","104","0","11/30/15 08:11:58","Default description","no","mono","no","18","black","Ok","768","legacy","D:/Downloads/subject-2645432.csv","xpyriment","Interactive Ising","3.0.4","0","m","NA","NA","m","299","NA","NA","299","legacy","experiment","2645432","even","legacy","29997","NA","NA","NA","NA","350746","NA","NA","350043","350445","778","350747","348538","348505","350445","778","CogMod 2015 Experiment","104","33135","105","yes","1024"
"1","400","-150","15","99.0566037736","99.0566037736","315","315","white","no","xpyriment","legacy","legacy","0","uniform","1","1","z","0","0","0","0","0","105","NA","NA","105","105","0","105","105","105","105","0","11/30/15 08:11:58","Default description","no","mono","no","18","black","Ok","768","legacy","D:/Downloads/subject-2645432.csv","xpyriment","Interactive Ising","3.0.4","0","z","NA","NA","z","329","NA","NA","329","legacy","experiment","2645432","even","legacy","29997","NA","NA","NA","NA","353194","NA","NA","352461","352863","778","353194","350958","350925","352863","778","CogMod 2015 Experiment","105","33464","106","yes","1024"
"1","1600","150","15","99.0654205607","99.0654205607","315","315","white","no","xpyriment","legacy","legacy","0","uniform","1","1","m","0","0","0","0","0","106","NA","NA","106","106","0","106","106","106","106","0","11/30/15 08:11:58","Default description","no","mono","no","18","black","Ok","768","legacy","D:/Downloads/subject-2645432.csv","xpyriment","Interactive Ising","3.0.4","0","m","NA","NA","m","306","NA","NA","306","legacy","experiment","2645432","even","legacy","29997","NA","NA","NA","NA","356802","NA","NA","354891","356493","778","356802","353387","353355","356493","778","CogMod 2015 Experiment","106","33770","107","yes","1024"
"1","800","150","15","99.0740740741","99.0740740741","316","316","white","no","xpyriment","legacy","legacy","0","uniform","1","1","m","0","0","0","0","0","107","NA","NA","107","107","0","107","107","107","107","0","11/30/15 08:11:58","Default description","no","mono","no","18","black","Ok","768","legacy","D:/Downloads/subject-2645432.csv","xpyriment","Interactive Ising","3.0.4","0","m","NA","NA","m","359","NA","NA","359","legacy","experiment","2645432","even","legacy","29997","NA","NA","NA","NA","359666","NA","NA","358502","359304","778","359666","356998","356971","359304","778","CogMod 2015 Experiment","107","34129","108","yes","1024"
"1","800","150","15","99.0825688073","99.0825688073","315","315","white","no","xpyriment","legacy","legacy","0","uniform","1","1","m","0","0","0","0","0","108","NA","NA","108","108","0","108","108","108","108","0","11/30/15 08:11:58","Default description","no","mono","no","18","black","Ok","768","legacy","D:/Downloads/subject-2645432.csv","xpyriment","Interactive Ising","3.0.4","0","m","NA","NA","m","314","NA","NA","314","legacy","experiment","2645432","even","legacy","29997","NA","NA","NA","NA","362481","NA","NA","361363","362165","778","362481","359859","359828","362165","778","CogMod 2015 Experiment","108","34443","109","yes","1024"
"1","800","150","15","99.0909090909","99.0909090909","315","315","white","no","xpyriment","legacy","legacy","0","uniform","1","1","m","0","0","0","0","0","109","NA","NA","109","109","0","109","109","109","109","0","11/30/15 08:11:58","Default description","no","mono","no","18","black","Ok","768","legacy","D:/Downloads/subject-2645432.csv","xpyriment","Interactive Ising","3.0.4","0","m","NA","NA","m","313","NA","NA","313","legacy","experiment","2645432","even","legacy","29997","NA","NA","NA","NA","365297","NA","NA","364180","364982","778","365297","362677","362646","364982","778","CogMod 2015 Experiment","109","34756","110","yes","1024"
"1","800","-150","15","99.0990990991","99.0990990991","316","316","white","no","xpyriment","legacy","legacy","0","uniform","1","1","z","0","0","0","0","0","110","NA","NA","110","110","0","110","110","110","110","0","11/30/15 08:11:58","Default description","no","mono","no","18","black","Ok","768","legacy","D:/Downloads/subject-2645432.csv","xpyriment","Interactive Ising","3.0.4","0","z","NA","NA","z","369","NA","NA","369","legacy","experiment","2645432","even","legacy","29997","NA","NA","NA","NA","368186","NA","NA","367013","367815","778","368186","365510","365478","367815","778","CogMod 2015 Experiment","110","35125","111","yes","1024"
"1","800","150","15","99.1071428571","99.1071428571","315","315","white","no","xpyriment","legacy","legacy","0","uniform","1","1","m","0","0","0","0","0","111","NA","NA","111","111","0","111","111","111","111","0","11/30/15 08:11:58","Default description","no","mono","no","18","black","Ok","768","legacy","D:/Downloads/subject-2645432.csv","xpyriment","Interactive Ising","3.0.4","0","m","NA","NA","m","261","NA","NA","261","legacy","experiment","2645432","even","legacy","29997","NA","NA","NA","NA","370962","NA","NA","369897","370699","778","370962","368394","368361","370699","778","CogMod 2015 Experiment","111","35386","112","yes","1024"
"1","1200","150","15","99.1150442478","99.1150442478","316","316","white","no","xpyriment","legacy","legacy","0","uniform","1","1","m","0","0","0","0","0","112","NA","NA","112","112","0","112","112","112","112","0","11/30/15 08:11:58","Default description","no","mono","no","18","black","Ok","768","legacy","D:/Downloads/subject-2645432.csv","xpyriment","Interactive Ising","3.0.4","0","m","NA","NA","m","336","NA","NA","336","legacy","experiment","2645432","even","legacy","29997","NA","NA","NA","NA","374210","NA","NA","372669","373871","778","374210","371166","371137","373871","778","CogMod 2015 Experiment","112","35722","113","yes","1024"
"1","800","150","15","99.1228070175","99.1228070175","316","316","white","no","xpyriment","legacy","legacy","0","uniform","1","1","m","0","0","0","0","0","113","NA","NA","113","113","0","113","113","113","113","0","11/30/15 08:11:58","Default description","no","mono","no","18","black","Ok","768","legacy","D:/Downloads/subject-2645432.csv","xpyriment","Interactive Ising","3.0.4","0","m","NA","NA","m","347","NA","NA","347","legacy","experiment","2645432","even","legacy","29997","NA","NA","NA","NA","377073","NA","NA","375922","376724","778","377074","374419","374387","376724","778","CogMod 2015 Experiment","113","36069","114","yes","1024"
"1","400","-150","15","99.1304347826","99.1304347826","316","316","white","no","xpyriment","legacy","legacy","0","uniform","1","1","z","0","0","0","0","0","114","NA","NA","114","114","0","114","114","114","114","0","11/30/15 08:11:58","Default description","no","mono","no","18","black","Ok","768","legacy","D:/Downloads/subject-2645432.csv","xpyriment","Interactive Ising","3.0.4","0","z","NA","NA","z","317","NA","NA","317","legacy","experiment","2645432","even","legacy","29997","NA","NA","NA","NA","379513","NA","NA","378792","379194","778","379513","377285","377252","379194","778","CogMod 2015 Experiment","114","36386","115","yes","1024"
"1","800","-150","15","99.1379310345","99.1379310345","316","316","white","no","xpyriment","legacy","legacy","0","uniform","1","1","z","0","0","0","0","0","115","NA","NA","115","115","0","115","115","115","115","0","11/30/15 08:11:58","Default description","no","mono","no","18","black","Ok","768","legacy","D:/Downloads/subject-2645432.csv","xpyriment","Interactive Ising","3.0.4","0","z","NA","NA","z","376","NA","NA","376","legacy","experiment","2645432","even","legacy","29997","NA","NA","NA","NA","382393","NA","NA","381213","382015","778","382393","379707","379671","382015","778","CogMod 2015 Experiment","115","36762","116","yes","1024"
"1","800","-150","15","99.1452991453","99.1452991453","317","317","white","no","xpyriment","legacy","legacy","0","uniform","1","1","z","0","0","0","0","0","116","NA","NA","116","116","0","116","116","116","116","0","11/30/15 08:11:58","Default description","no","mono","no","18","black","Ok","768","legacy","D:/Downloads/subject-2645432.csv","xpyriment","Interactive Ising","3.0.4","0","z","NA","NA","z","373","NA","NA","373","legacy","experiment","2645432","even","legacy","29997","NA","NA","NA","NA","385266","NA","NA","384089","384891","778","385266","382583","382552","384891","778","CogMod 2015 Experiment","116","37135","117","yes","1024"
"1","1200","-150","15","99.1525423729","99.1525423729","317","317","white","no","xpyriment","legacy","legacy","0","uniform","1","1","z","0","0","0","0","0","117","NA","NA","117","117","0","117","117","117","117","0","11/30/15 08:11:58","Default description","no","mono","no","18","black","Ok","768","legacy","D:/Downloads/subject-2645432.csv","xpyriment","Interactive Ising","3.0.4","0","z","NA","NA","z","324","NA","NA","324","legacy","experiment","2645432","even","legacy","29997","NA","NA","NA","NA","388538","NA","NA","387009","388211","778","388539","385503","385472","388211","778","CogMod 2015 Experiment","117","37459","118","yes","1024"
"1","800","-150","15","99.1596638655","99.1596638655","317","317","white","no","xpyriment","legacy","legacy","0","uniform","1","1","z","0","0","0","0","0","118","NA","NA","118","118","0","118","118","118","118","0","11/30/15 08:11:58","Default description","no","mono","no","18","black","Ok","768","legacy","D:/Downloads/subject-2645432.csv","xpyriment","Interactive Ising","3.0.4","0","z","NA","NA","z","311","NA","NA","311","legacy","experiment","2645432","even","legacy","29997","NA","NA","NA","NA","391362","NA","NA","390246","391048","778","391362","388740","388707","391048","778","CogMod 2015 Experiment","118","37770","119","yes","1024"
"1","800","-150","15","99.1666666667","99.1666666667","319","319","white","no","xpyriment","legacy","legacy","0","uniform","1","1","z","0","0","0","0","0","119","NA","NA","119","119","0","119","119","119","119","0","11/30/15 08:11:58","Default description","no","mono","no","18","black","Ok","768","legacy","D:/Downloads/subject-2645432.csv","xpyriment","Interactive Ising","3.0.4","0","z","NA","NA","z","538","NA","NA","538","legacy","experiment","2645432","even","legacy","29997","NA","NA","NA","NA","394402","NA","NA","393059","393861","778","394402","391551","391525","393861","778","CogMod 2015 Experiment","119","38308","120","yes","1024"
"2","1600","-150","32","100","100","315","315","white","no","xpyriment","legacy","legacy","0","uniform","1","1","z","0","0","0","0","0","120","0","NA","120","120","0","120","120","120","120","0","11/30/15 08:11:58","Default description","no","mono","no","18","black","Ok","768","legacy","D:/Downloads/subject-2645432.csv","xpyriment","Interactive Ising","3.0.4","0","z","z","NA","z","315","5489","NA","315","legacy","experiment","2645432","even","legacy","29997","400191","NA","NA","NA","403802","394702","NA","401882","403484","778","403802","400380","400348","403484","778","CogMod 2015 Experiment","1","315","1","yes","1024"
"2","800","-150","8","100","100","302","302","white","no","xpyriment","legacy","legacy","0","uniform","1","1","z","0","0","0","0","0","121","0","NA","121","121","0","121","121","121","121","0","11/30/15 08:11:58","Default description","no","mono","no","18","black","Ok","768","legacy","D:/Downloads/subject-2645432.csv","xpyriment","Interactive Ising","3.0.4","0","z","z","NA","z","290","5489","NA","290","legacy","experiment","2645432","even","legacy","29997","400191","NA","NA","NA","406610","394702","NA","405515","406317","778","406610","404009","403990","406317","778","CogMod 2015 Experiment","2","605","2","yes","1024"
"2","1200","150","16","100","100","299","299","white","no","xpyriment","legacy","legacy","0","uniform","1","1","m","0","0","0","0","0","122","0","NA","122","122","0","122","122","122","122","0","11/30/15 08:11:58","Default description","no","mono","no","18","black","Ok","768","legacy","D:/Downloads/subject-2645432.csv","xpyriment","Interactive Ising","3.0.4","0","m","z","NA","m","292","5489","NA","292","legacy","experiment","2645432","even","legacy","29997","400191","NA","NA","NA","409809","394702","NA","408313","409515","778","409809","406805","406771","409515","778","CogMod 2015 Experiment","3","897","3","yes","1024"
"2","1600","-150","32","100","100","293","293","white","no","xpyriment","legacy","legacy","0","uniform","1","1","z","0","0","0","0","0","123","0","NA","123","123","0","123","123","123","123","0","11/30/15 08:11:58","Default description","no","mono","no","18","black","Ok","768","legacy","D:/Downloads/subject-2645432.csv","xpyriment","Interactive Ising","3.0.4","0","z","z","NA","z","276","5489","NA","276","legacy","experiment","2645432","even","legacy","29997","400191","NA","NA","NA","413385","394702","NA","411505","413107","778","413385","409999","409971","413107","778","CogMod 2015 Experiment","4","1173","4","yes","1024"
"2","1600","150","32","100","100","293","293","white","no","xpyriment","legacy","legacy","0","uniform","1","1","m","0","0","0","0","0","124","0","NA","124","124","0","124","124","124","124","0","11/30/15 08:11:58","Default description","no","mono","no","18","black","Ok","768","legacy","D:/Downloads/subject-2645432.csv","xpyriment","Interactive Ising","3.0.4","0","m","z","NA","m","295","5489","NA","295","legacy","experiment","2645432","even","legacy","29997","400191","NA","NA","NA","416985","394702","NA","415085","416687","778","416985","413577","413545","416687","778","CogMod 2015 Experiment","5","1468","5","yes","1024"
"2","1600","150","32","100","100","292","292","white","no","xpyriment","legacy","legacy","0","uniform","1","1","m","0","0","0","0","0","125","0","NA","125","125","0","125","125","125","125","0","11/30/15 08:11:58","Default description","no","mono","no","18","black","Ok","768","legacy","D:/Downloads/subject-2645432.csv","xpyriment","Interactive Ising","3.0.4","0","m","z","NA","m","288","5489","NA","288","legacy","experiment","2645432","even","legacy","29997","400191","NA","NA","NA","420570","394702","NA","418677","420279","778","420570","417171","417144","420279","778","CogMod 2015 Experiment","6","1756","6","yes","1024"
"2","1200","150","16","100","100","294","294","white","no","xpyriment","legacy","legacy","0","uniform","1","1","m","0","0","0","0","0","126","0","NA","126","126","0","126","126","126","126","0","11/30/15 08:11:58","Default description","no","mono","no","18","black","Ok","768","legacy","D:/Downloads/subject-2645432.csv","xpyriment","Interactive Ising","3.0.4","0","m","z","NA","m","304","5489","NA","304","legacy","experiment","2645432","even","legacy","29997","400191","NA","NA","NA","423777","394702","NA","422267","423471","778","423778","420758","420728","423471","778","CogMod 2015 Experiment","7","2060","7","yes","1024"
"2","1600","-150","32","100","100","295","295","white","no","xpyriment","legacy","legacy","0","uniform","1","1","z","0","0","0","0","0","127","0","NA","127","127","0","127","127","127","127","0","11/30/15 08:11:58","Default description","no","mono","no","18","black","Ok","768","legacy","D:/Downloads/subject-2645432.csv","xpyriment","Interactive Ising","3.0.4","0","z","z","NA","z","300","5489","NA","300","legacy","experiment","2645432","even","legacy","29997","400191","NA","NA","NA","427385","394702","NA","425481","427083","778","427385","423975","423945","427083","778","CogMod 2015 Experiment","8","2360","8","yes","1024"
"2","1600","-150","32","100","100","296","296","white","no","xpyriment","legacy","legacy","0","uniform","1","1","z","0","0","0","0","0","128","0","NA","128","128","0","128","128","128","128","0","11/30/15 08:11:58","Default description","no","mono","no","18","black","Ok","768","legacy","D:/Downloads/subject-2645432.csv","xpyriment","Interactive Ising","3.0.4","0","z","z","NA","z","311","5489","NA","311","legacy","experiment","2645432","even","legacy","29997","400191","NA","NA","NA","431009","394702","NA","429094","430696","778","431009","427586","427553","430696","778","CogMod 2015 Experiment","9","2671","9","yes","1024"
"2","1600","-150","32","100","100","297","297","white","no","xpyriment","legacy","legacy","0","uniform","1","1","z","0","0","0","0","0","129","0","NA","129","129","0","129","129","129","129","0","11/30/15 08:11:58","Default description","no","mono","no","18","black","Ok","768","legacy","D:/Downloads/subject-2645432.csv","xpyriment","Interactive Ising","3.0.4","0","z","z","NA","z","306","5489","NA","306","legacy","experiment","2645432","even","legacy","29997","400191","NA","NA","NA","434689","394702","NA","432778","434380","778","434689","431272","431241","434380","778","CogMod 2015 Experiment","10","2977","10","yes","1024"
"2","800","150","8","100","100","295","295","white","no","xpyriment","legacy","legacy","0","uniform","1","1","m","0","0","0","0","0","130","0","NA","130","130","0","130","130","130","130","0","11/30/15 08:11:58","Default description","no","mono","no","18","black","Ok","768","legacy","D:/Downloads/subject-2645432.csv","xpyriment","Interactive Ising","3.0.4","0","m","z","NA","m","277","5489","NA","277","legacy","experiment","2645432","even","legacy","29997","400191","NA","NA","NA","437498","394702","NA","436416","437218","778","437498","434910","434880","437218","778","CogMod 2015 Experiment","11","3254","11","yes","1024"
"2","1600","150","32","100","100","296","296","white","no","xpyriment","legacy","legacy","0","uniform","1","1","m","0","0","0","0","0","131","0","NA","131","131","0","131","131","131","131","0","11/30/15 08:11:58","Default description","no","mono","no","18","black","Ok","768","legacy","D:/Downloads/subject-2645432.csv","xpyriment","Interactive Ising","3.0.4","0","m","z","NA","m","301","5489","NA","301","legacy","experiment","2645432","even","legacy","29997","400191","NA","NA","NA","441105","394702","NA","439200","440802","778","441106","437694","437662","440802","778","CogMod 2015 Experiment","12","3555","12","yes","1024"
"2","800","150","8","100","100","296","296","white","no","xpyriment","legacy","legacy","0","uniform","1","1","m","0","0","0","0","0","132","0","NA","132","132","0","132","132","132","132","0","11/30/15 08:11:58","Default description","no","mono","no","18","black","Ok","768","legacy","D:/Downloads/subject-2645432.csv","xpyriment","Interactive Ising","3.0.4","0","m","z","NA","m","297","5489","NA","297","legacy","experiment","2645432","even","legacy","29997","400191","NA","NA","NA","443897","394702","NA","442796","443598","778","443897","441289","441261","443598","778","CogMod 2015 Experiment","13","3852","13","yes","1024"
"2","1200","-150","16","100","100","295","295","white","no","xpyriment","legacy","legacy","0","uniform","1","1","z","0","0","0","0","0","133","0","NA","133","133","0","133","133","133","133","0","11/30/15 08:11:58","Default description","no","mono","no","18","black","Ok","768","legacy","D:/Downloads/subject-2645432.csv","xpyriment","Interactive Ising","3.0.4","0","z","z","NA","z","279","5489","NA","279","legacy","experiment","2645432","even","legacy","29997","400191","NA","NA","NA","447114","394702","NA","445630","446832","778","447114","444123","444090","446832","778","CogMod 2015 Experiment","14","4131","14","yes","1024"
"2","1200","-150","16","100","100","298","298","white","no","xpyriment","legacy","legacy","0","uniform","1","1","z","0","0","0","0","0","134","0","NA","134","134","0","134","134","134","134","0","11/30/15 08:11:58","Default description","no","mono","no","18","black","Ok","768","legacy","D:/Downloads/subject-2645432.csv","xpyriment","Interactive Ising","3.0.4","0","z","z","NA","z","342","5489","NA","342","legacy","experiment","2645432","even","legacy","29997","400191","NA","NA","NA","450369","394702","NA","448822","450024","778","450369","447316","447286","450024","778","CogMod 2015 Experiment","15","4473","15","yes","1024"
"2","1200","150","16","100","100","302","302","white","no","xpyriment","legacy","legacy","0","uniform","1","1","m","0","0","0","0","0","135","0","NA","135","135","0","135","135","135","135","0","11/30/15 08:11:58","Default description","no","mono","no","18","black","Ok","768","legacy","D:/Downloads/subject-2645432.csv","xpyriment","Interactive Ising","3.0.4","0","m","z","NA","m","367","5489","NA","367","legacy","experiment","2645432","even","legacy","29997","400191","NA","NA","NA","453681","394702","NA","452108","453311","778","453681","450601","450569","453311","778","CogMod 2015 Experiment","16","4840","16","yes","1024"
"2","1200","-150","16","100","100","305","305","white","no","xpyriment","legacy","legacy","0","uniform","1","1","z","0","0","0","0","0","136","0","NA","136","136","0","136","136","136","136","0","11/30/15 08:11:58","Default description","no","mono","no","18","black","Ok","768","legacy","D:/Downloads/subject-2645432.csv","xpyriment","Interactive Ising","3.0.4","0","z","z","NA","z","354","5489","NA","354","legacy","experiment","2645432","even","legacy","29997","400191","NA","NA","NA","456961","394702","NA","455403","456605","778","456961","453896","453857","456605","778","CogMod 2015 Experiment","17","5194","17","yes","1024"
"2","1600","-150","32","100","100","311","311","white","no","xpyriment","legacy","legacy","0","uniform","1","1","z","0","0","0","0","0","137","0","NA","137","137","0","137","137","137","137","0","11/30/15 08:11:58","Default description","no","mono","no","18","black","Ok","768","legacy","D:/Downloads/subject-2645432.csv","xpyriment","Interactive Ising","3.0.4","0","z","z","NA","z","406","5489","NA","406","legacy","experiment","2645432","even","legacy","29997","400191","NA","NA","NA","460673","394702","NA","458663","460265","778","460673","457157","457118","460265","778","CogMod 2015 Experiment","18","5600","18","yes","1024"
"2","1200","-150","16","100","100","313","313","white","no","xpyriment","legacy","legacy","0","uniform","1","1","z","0","0","0","0","0","138","0","NA","138","138","0","138","138","138","138","0","11/30/15 08:11:58","Default description","no","mono","no","18","black","Ok","768","legacy","D:/Downloads/subject-2645432.csv","xpyriment","Interactive Ising","3.0.4","0","z","z","NA","z","357","5489","NA","357","legacy","experiment","2645432","even","legacy","29997","400191","NA","NA","NA","463961","394702","NA","462399","463602","778","463961","460892","460856","463602","778","CogMod 2015 Experiment","19","5957","19","yes","1024"
"2","400","-150","4","100","100","316","316","white","no","xpyriment","legacy","legacy","0","uniform","1","1","z","0","0","0","0","0","139","0","NA","139","139","0","139","139","139","139","0","11/30/15 08:11:58","Default description","no","mono","no","18","black","Ok","768","legacy","D:/Downloads/subject-2645432.csv","xpyriment","Interactive Ising","3.0.4","0","z","z","NA","z","371","5489","NA","371","legacy","experiment","2645432","even","legacy","29997","400191","NA","NA","NA","466449","394702","NA","465673","466075","778","466449","464167","464128","466075","778","CogMod 2015 Experiment","20","6328","20","yes","1024"
"2","1600","150","32","100","100","315","315","white","no","xpyriment","legacy","legacy","0","uniform","1","1","m","0","0","0","0","0","140","0","NA","140","140","0","140","140","140","140","0","11/30/15 08:11:58","Default description","no","mono","no","18","black","Ok","768","legacy","D:/Downloads/subject-2645432.csv","xpyriment","Interactive Ising","3.0.4","0","m","z","NA","m","294","5489","NA","294","legacy","experiment","2645432","even","legacy","29997","400191","NA","NA","NA","470048","394702","NA","468150","469752","778","470049","466642","466604","469752","778","CogMod 2015 Experiment","21","6622","21","yes","1024"
"2","1200","-150","16","100","100","316","316","white","no","xpyriment","legacy","legacy","0","uniform","1","1","z","0","0","0","0","0","141","0","NA","141","141","0","141","141","141","141","0","11/30/15 08:11:58","Default description","no","mono","no","18","black","Ok","768","legacy","D:/Downloads/subject-2645432.csv","xpyriment","Interactive Ising","3.0.4","0","z","z","NA","z","340","5489","NA","340","legacy","experiment","2645432","even","legacy","29997","400191","NA","NA","NA","473337","394702","NA","471793","472995","778","473337","470288","470252","472995","778","CogMod 2015 Experiment","22","6962","22","yes","1024"
"2","1200","150","16","100","100","315","315","white","no","xpyriment","legacy","legacy","0","uniform","1","1","m","0","0","0","0","0","142","0","NA","142","142","0","142","142","142","142","0","11/30/15 08:11:58","Default description","no","mono","no","18","black","Ok","768","legacy","D:/Downloads/subject-2645432.csv","xpyriment","Interactive Ising","3.0.4","0","m","z","NA","m","298","5489","NA","298","legacy","experiment","2645432","even","legacy","29997","400191","NA","NA","NA","476569","394702","NA","475067","476269","778","476569","473565","473512","476269","778","CogMod 2015 Experiment","23","7260","23","yes","1024"
"2","1600","-150","32","100","100","314","314","white","no","xpyriment","legacy","legacy","0","uniform","1","1","z","0","0","0","0","0","143","0","NA","143","143","0","143","143","143","143","0","11/30/15 08:11:58","Default description","no","mono","no","18","black","Ok","768","legacy","D:/Downloads/subject-2645432.csv","xpyriment","Interactive Ising","3.0.4","0","z","z","NA","z","288","5489","NA","288","legacy","experiment","2645432","even","legacy","29997","400191","NA","NA","NA","480161","394702","NA","478268","479870","778","480161","476762","476726","479870","778","CogMod 2015 Experiment","24","7548","24","yes","1024"
"2","1200","-150","16","100","100","316","316","white","no","xpyriment","legacy","legacy","0","uniform","1","1","z","0","0","0","0","0","144","0","NA","144","144","0","144","144","144","144","0","11/30/15 08:11:58","Default description","no","mono","no","18","black","Ok","768","legacy","D:/Downloads/subject-2645432.csv","xpyriment","Interactive Ising","3.0.4","0","z","z","NA","z","368","5489","NA","368","legacy","experiment","2645432","even","legacy","29997","400191","NA","NA","NA","483441","394702","NA","481868","483070","778","483441","480361","480326","483070","778","CogMod 2015 Experiment","25","7916","25","yes","1024"
"2","1600","-150","32","100","100","317","317","white","no","xpyriment","legacy","legacy","0","uniform","1","1","z","0","0","0","0","0","145","0","NA","145","145","0","145","145","145","145","0","11/30/15 08:11:58","Default description","no","mono","no","18","black","Ok","768","legacy","D:/Downloads/subject-2645432.csv","xpyriment","Interactive Ising","3.0.4","0","z","z","NA","z","335","5489","NA","335","legacy","experiment","2645432","even","legacy","29997","400191","NA","NA","NA","487113","394702","NA","485173","486775","778","487113","483667","483635","486775","778","CogMod 2015 Experiment","26","8251","26","yes","1024"
"2","1200","150","16","100","100","319","319","white","no","xpyriment","legacy","legacy","0","uniform","1","1","m","0","0","0","0","0","146","0","NA","146","146","0","146","146","146","146","0","11/30/15 08:11:58","Default description","no","mono","no","18","black","Ok","768","legacy","D:/Downloads/subject-2645432.csv","xpyriment","Interactive Ising","3.0.4","0","m","z","NA","m","368","5489","NA","368","legacy","experiment","2645432","even","legacy","29997","400191","NA","NA","NA","490377","394702","NA","488805","490007","778","490377","487299","487267","490007","778","CogMod 2015 Experiment","27","8619","27","yes","1024"
"2","1600","150","32","100","100","319","319","white","no","xpyriment","legacy","legacy","0","uniform","1","1","m","0","0","0","0","0","147","0","NA","147","147","0","147","147","147","147","0","11/30/15 08:11:58","Default description","no","mono","no","18","black","Ok","768","legacy","D:/Downloads/subject-2645432.csv","xpyriment","Interactive Ising","3.0.4","0","m","z","NA","m","321","5489","NA","321","legacy","experiment","2645432","even","legacy","29997","400191","NA","NA","NA","494009","394702","NA","492083","493686","778","494009","490576","490545","493686","778","CogMod 2015 Experiment","28","8940","28","yes","1024"
"2","1200","-150","16","100","100","319","319","white","no","xpyriment","legacy","legacy","0","uniform","1","1","z","0","0","0","0","0","148","0","NA","148","148","0","148","148","148","148","0","11/30/15 08:11:58","Default description","no","mono","no","18","black","Ok","768","legacy","D:/Downloads/subject-2645432.csv","xpyriment","Interactive Ising","3.0.4","0","z","z","NA","z","316","5489","NA","316","legacy","experiment","2645432","even","legacy","29997","400191","NA","NA","NA","497233","394702","NA","495712","496914","778","497233","494205","494174","496914","778","CogMod 2015 Experiment","29","9256","29","yes","1024"
"2","1600","-150","32","100","100","318","318","white","no","xpyriment","legacy","legacy","0","uniform","1","1","z","0","0","0","0","0","149","0","NA","149","149","0","149","149","149","149","0","11/30/15 08:11:58","Default description","no","mono","no","18","black","Ok","768","legacy","D:/Downloads/subject-2645432.csv","xpyriment","Interactive Ising","3.0.4","0","z","z","NA","z","303","5489","NA","303","legacy","experiment","2645432","even","legacy","29997","400191","NA","NA","NA","500848","394702","NA","498941","500543","778","500849","497434","497404","500543","778","CogMod 2015 Experiment","30","9559","30","yes","1024"
"2","1600","150","32","100","100","318","318","white","no","xpyriment","legacy","legacy","0","uniform","1","1","m","0","0","0","0","0","150","0","NA","150","150","0","150","150","150","150","0","11/30/15 08:11:58","Default description","no","mono","no","18","black","Ok","768","legacy","D:/Downloads/subject-2645432.csv","xpyriment","Interactive Ising","3.0.4","0","m","z","NA","m","324","5489","NA","324","legacy","experiment","2645432","even","legacy","29997","400191","NA","NA","NA","504464","394702","NA","502536","504138","778","504464","501031","501014","504138","778","CogMod 2015 Experiment","31","9883","31","yes","1024"
"2","1600","-150","32","100","100","319","319","white","no","xpyriment","legacy","legacy","0","uniform","1","1","z","0","0","0","0","0","151","0","NA","151","151","0","151","151","151","151","0","11/30/15 08:11:58","Default description","no","mono","no","18","black","Ok","768","legacy","D:/Downloads/subject-2645432.csv","xpyriment","Interactive Ising","3.0.4","0","z","z","NA","z","339","5489","NA","339","legacy","experiment","2645432","even","legacy","29997","400191","NA","NA","NA","508145","394702","NA","506202","507804","778","508145","504696","504678","507804","778","CogMod 2015 Experiment","32","10222","32","yes","1024"
"2","400","150","4","100","100","320","320","white","no","xpyriment","legacy","legacy","0","uniform","1","1","m","0","0","0","0","0","152","0","NA","152","152","0","152","152","152","152","0","11/30/15 08:11:58","Default description","no","mono","no","18","black","Ok","768","legacy","D:/Downloads/subject-2645432.csv","xpyriment","Interactive Ising","3.0.4","0","m","z","NA","m","362","5489","NA","362","legacy","experiment","2645432","even","legacy","29997","400191","NA","NA","NA","510609","394702","NA","509843","510245","778","510609","508337","508311","510245","778","CogMod 2015 Experiment","33","10584","33","yes","1024"
"2","1600","150","32","100","100","320","320","white","no","xpyriment","legacy","legacy","0","uniform","1","1","m","0","0","0","0","0","153","0","NA","153","153","0","153","153","153","153","0","11/30/15 08:11:58","Default description","no","mono","no","18","black","Ok","768","legacy","D:/Downloads/subject-2645432.csv","xpyriment","Interactive Ising","3.0.4","0","m","z","NA","m","316","5489","NA","316","legacy","experiment","2645432","even","legacy","29997","400191","NA","NA","NA","514241","394702","NA","512320","513922","778","514241","510814","510783","513922","778","CogMod 2015 Experiment","34","10900","34","yes","1024"
"2","400","-150","4","100","100","321","321","white","no","xpyriment","legacy","legacy","0","uniform","1","1","z","0","0","0","0","0","154","0","NA","154","154","0","154","154","154","154","0","11/30/15 08:11:58","Default description","no","mono","no","18","black","Ok","768","legacy","D:/Downloads/subject-2645432.csv","xpyriment","Interactive Ising","3.0.4","0","z","z","NA","z","353","5489","NA","353","legacy","experiment","2645432","even","legacy","29997","400191","NA","NA","NA","516696","394702","NA","515939","516341","778","516697","514431","514403","516341","778","CogMod 2015 Experiment","35","11253","35","yes","1024"
"2","1200","-150","16","100","100","320","320","white","no","xpyriment","legacy","legacy","0","uniform","1","1","z","0","0","0","0","0","155","0","NA","155","155","0","155","155","155","155","0","11/30/15 08:11:58","Default description","no","mono","no","18","black","Ok","768","legacy","D:/Downloads/subject-2645432.csv","xpyriment","Interactive Ising","3.0.4","0","z","z","NA","z","285","5489","NA","285","legacy","experiment","2645432","even","legacy","29997","400191","NA","NA","NA","519912","394702","NA","518423","519625","778","519912","516917","516885","519625","778","CogMod 2015 Experiment","36","11538","36","yes","1024"
"2","1600","-150","32","100","100","320","320","white","no","xpyriment","legacy","legacy","0","uniform","1","1","z","0","0","0","0","0","156","0","NA","156","156","0","156","156","156","156","0","11/30/15 08:11:58","Default description","no","mono","no","18","black","Ok","768","legacy","D:/Downloads/subject-2645432.csv","xpyriment","Interactive Ising","3.0.4","0","z","z","NA","z","309","5489","NA","309","legacy","experiment","2645432","even","legacy","29997","400191","NA","NA","NA","523536","394702","NA","521623","523225","778","523536","520116","520086","523225","778","CogMod 2015 Experiment","37","11847","37","yes","1024"
