"Block","Foreperiod","Location","NumRep","acc","accuracy","average_response_time","avg_rt","background","bidi","canvas_backend","clock_backend","color_backend","compensation","coordinates","correct","correct_GetResponse","correct_response","count_Block_1","count_Block_2","count_Block_3","count_Block_4","count_Block_5","count_ClearScreen","count_Feedback","count_Feedback_Final","count_Fixation","count_GetResponse","count_Instructions1","count_LogData","count_PreTrialWait","count_SingleTrial","count_Stimulus","count_experiment","datetime","description","font_bold","font_family","font_italic","font_size","foreground","form_response","height","keyboard_backend","logfile","mouse_backend","opensesame_codename","opensesame_version","repeat_cycle","response","response_Feedback","response_Feedback_Final","response_GetResponse","response_time","response_time_Feedback","response_time_Feedback_Final","response_time_GetResponse","sampler_backend","start","subject_nr","subject_parity","synth_backend","time_Block_1","time_Block_2","time_Block_3","time_Block_4","time_Block_5","time_ClearScreen","time_Feedback","time_Feedback_Final","time_Fixation","time_GetResponse","time_Instructions1","time_LogData","time_PreTrialWait","time_SingleTrial","time_Stimulus","time_experiment","title","total_correct","total_response_time","total_responses","uniform_coordinates","width"
"1","1200","-150","15","100","100","326","326","white","no","xpyriment","legacy","legacy","0","uniform","1","1","z","0","0","0","0","0","0","NA","NA","0","0","0","0","0","0","0","0","11/29/15 16:59:38","Default description","no","mono","no","18","black","Ok","768","legacy","C:/Dropbox/RUG_private/Master/Cognitive modeling2015/Assignment data collection/subject-2029200.csv","xpyriment","Interactive Ising","3.0.4","0","z","NA","NA","z","326","NA","NA","326","legacy","experiment","2029200","even","legacy","38456","NA","NA","NA","NA","41839","NA","NA","40289","41506","1836","41839","38772","38761","41506","1834","CogMod 2015 Experiment","1","326","1","yes","1024"
"1","400","-150","15","100","100","330","330","white","no","xpyriment","legacy","legacy","0","uniform","1","1","z","0","0","0","0","0","1","NA","NA","1","1","0","1","1","1","1","0","11/29/15 16:59:38","Default description","no","mono","no","18","black","Ok","768","legacy","C:/Dropbox/RUG_private/Master/Cognitive modeling2015/Assignment data collection/subject-2029200.csv","xpyriment","Interactive Ising","3.0.4","0","z","NA","NA","z","334","NA","NA","334","legacy","experiment","2029200","even","legacy","38456","NA","NA","NA","NA","44439","NA","NA","43672","44089","1836","44439","42155","42148","44089","1834","CogMod 2015 Experiment","2","660","2","yes","1024"
"1","800","-150","15","100","100","301","301","white","no","xpyriment","legacy","legacy","0","uniform","1","1","z","0","0","0","0","0","2","NA","NA","2","2","0","2","2","2","2","0","11/29/15 16:59:38","Default description","no","mono","no","18","black","Ok","768","legacy","C:/Dropbox/RUG_private/Master/Cognitive modeling2015/Assignment data collection/subject-2029200.csv","xpyriment","Interactive Ising","3.0.4","0","z","NA","NA","z","243","NA","NA","243","legacy","experiment","2029200","even","legacy","38456","NA","NA","NA","NA","47339","NA","NA","46272","47089","1836","47339","44755","44743","47089","1834","CogMod 2015 Experiment","3","903","3","yes","1024"
"1","1200","150","15","100","100","284","284","white","no","xpyriment","legacy","legacy","0","uniform","1","1","m","0","0","0","0","0","3","NA","NA","3","3","0","3","3","3","3","0","11/29/15 16:59:38","Default description","no","mono","no","18","black","Ok","768","legacy","C:/Dropbox/RUG_private/Master/Cognitive modeling2015/Assignment data collection/subject-2029200.csv","xpyriment","Interactive Ising","3.0.4","0","m","NA","NA","m","234","NA","NA","234","legacy","experiment","2029200","even","legacy","38456","NA","NA","NA","NA","50638","NA","NA","49172","50389","1836","50638","47655","47641","50389","1834","CogMod 2015 Experiment","4","1137","4","yes","1024"
"1","1600","-150","15","100","100","273","273","white","no","xpyriment","legacy","legacy","0","uniform","1","1","z","0","0","0","0","0","4","NA","NA","4","4","0","4","4","4","4","0","11/29/15 16:59:38","Default description","no","mono","no","18","black","Ok","768","legacy","C:/Dropbox/RUG_private/Master/Cognitive modeling2015/Assignment data collection/subject-2029200.csv","xpyriment","Interactive Ising","3.0.4","0","z","NA","NA","z","231","NA","NA","231","legacy","experiment","2029200","even","legacy","38456","NA","NA","NA","NA","54339","NA","NA","52473","54090","1836","54339","50955","50946","54090","1834","CogMod 2015 Experiment","5","1368","5","yes","1024"
"1","1200","-150","15","100","100","272","272","white","no","xpyriment","legacy","legacy","0","uniform","1","1","z","0","0","0","0","0","5","NA","NA","5","5","0","5","5","5","5","0","11/29/15 16:59:38","Default description","no","mono","no","18","black","Ok","768","legacy","C:/Dropbox/RUG_private/Master/Cognitive modeling2015/Assignment data collection/subject-2029200.csv","xpyriment","Interactive Ising","3.0.4","0","z","NA","NA","z","265","NA","NA","265","legacy","experiment","2029200","even","legacy","38456","NA","NA","NA","NA","57672","NA","NA","56172","57389","1836","57672","54656","54645","57389","1834","CogMod 2015 Experiment","6","1633","6","yes","1024"
"1","1200","-150","15","100","100","267","267","white","no","xpyriment","legacy","legacy","0","uniform","1","1","z","0","0","0","0","0","6","NA","NA","6","6","0","6","6","6","6","0","11/29/15 16:59:38","Default description","no","mono","no","18","black","Ok","768","legacy","C:/Dropbox/RUG_private/Master/Cognitive modeling2015/Assignment data collection/subject-2029200.csv","xpyriment","Interactive Ising","3.0.4","0","z","NA","NA","z","241","NA","NA","241","legacy","experiment","2029200","even","legacy","38456","NA","NA","NA","NA","60972","NA","NA","59506","60723","1836","60972","57989","57979","60722","1834","CogMod 2015 Experiment","7","1874","7","yes","1024"
"1","1200","150","15","100","100","267","267","white","no","xpyriment","legacy","legacy","0","uniform","1","1","m","0","0","0","0","0","7","NA","NA","7","7","0","7","7","7","7","0","11/29/15 16:59:38","Default description","no","mono","no","18","black","Ok","768","legacy","C:/Dropbox/RUG_private/Master/Cognitive modeling2015/Assignment data collection/subject-2029200.csv","xpyriment","Interactive Ising","3.0.4","0","m","NA","NA","m","266","NA","NA","266","legacy","experiment","2029200","even","legacy","38456","NA","NA","NA","NA","64305","NA","NA","62805","64023","1836","64305","61289","61273","64022","1834","CogMod 2015 Experiment","8","2140","8","yes","1024"
"1","800","150","15","100","100","271","271","white","no","xpyriment","legacy","legacy","0","uniform","1","1","m","0","0","0","0","0","8","NA","NA","8","8","0","8","8","8","8","0","11/29/15 16:59:38","Default description","no","mono","no","18","black","Ok","768","legacy","C:/Dropbox/RUG_private/Master/Cognitive modeling2015/Assignment data collection/subject-2029200.csv","xpyriment","Interactive Ising","3.0.4","0","m","NA","NA","m","303","NA","NA","303","legacy","experiment","2029200","even","legacy","38456","NA","NA","NA","NA","67272","NA","NA","66139","66955","1836","67272","64622","64609","66955","1834","CogMod 2015 Experiment","9","2443","9","yes","1024"
"1","800","150","15","100","100","269","269","white","no","xpyriment","legacy","legacy","0","uniform","1","1","m","0","0","0","0","0","9","NA","NA","9","9","0","9","9","9","9","0","11/29/15 16:59:38","Default description","no","mono","no","18","black","Ok","768","legacy","C:/Dropbox/RUG_private/Master/Cognitive modeling2015/Assignment data collection/subject-2029200.csv","xpyriment","Interactive Ising","3.0.4","0","m","NA","NA","m","255","NA","NA","255","legacy","experiment","2029200","even","legacy","38456","NA","NA","NA","NA","70189","NA","NA","69105","69923","1836","70189","67589","67574","69923","1834","CogMod 2015 Experiment","10","2698","10","yes","1024"
"1","800","-150","15","100","100","267","267","white","no","xpyriment","legacy","legacy","0","uniform","1","1","z","0","0","0","0","0","10","NA","NA","10","10","0","10","10","10","10","0","11/29/15 16:59:38","Default description","no","mono","no","18","black","Ok","768","legacy","C:/Dropbox/RUG_private/Master/Cognitive modeling2015/Assignment data collection/subject-2029200.csv","xpyriment","Interactive Ising","3.0.4","0","z","NA","NA","z","241","NA","NA","241","legacy","experiment","2029200","even","legacy","38456","NA","NA","NA","NA","73089","NA","NA","72023","72840","1836","73089","70506","70492","72839","1834","CogMod 2015 Experiment","11","2939","11","yes","1024"
"1","400","-150","15","100","100","266","266","white","no","xpyriment","legacy","legacy","0","uniform","1","1","z","0","0","0","0","0","11","NA","NA","11","11","0","11","11","11","11","0","11/29/15 16:59:38","Default description","no","mono","no","18","black","Ok","768","legacy","C:/Dropbox/RUG_private/Master/Cognitive modeling2015/Assignment data collection/subject-2029200.csv","xpyriment","Interactive Ising","3.0.4","0","z","NA","NA","z","262","NA","NA","262","legacy","experiment","2029200","even","legacy","38456","NA","NA","NA","NA","75606","NA","NA","74923","75340","1836","75606","73406","73391","75339","1834","CogMod 2015 Experiment","12","3201","12","yes","1024"
"1","1600","-150","15","100","100","266","266","white","no","xpyriment","legacy","legacy","0","uniform","1","1","z","0","0","0","0","0","12","NA","NA","12","12","0","12","12","12","12","0","11/29/15 16:59:38","Default description","no","mono","no","18","black","Ok","768","legacy","C:/Dropbox/RUG_private/Master/Cognitive modeling2015/Assignment data collection/subject-2029200.csv","xpyriment","Interactive Ising","3.0.4","0","z","NA","NA","z","257","NA","NA","257","legacy","experiment","2029200","even","legacy","38456","NA","NA","NA","NA","79322","NA","NA","77439","79056","1836","79322","75926","75917","79056","1834","CogMod 2015 Experiment","13","3458","13","yes","1024"
"1","400","150","15","100","100","267","267","white","no","xpyriment","legacy","legacy","0","uniform","1","1","m","0","0","0","0","0","13","NA","NA","13","13","0","13","13","13","13","0","11/29/15 16:59:38","Default description","no","mono","no","18","black","Ok","768","legacy","C:/Dropbox/RUG_private/Master/Cognitive modeling2015/Assignment data collection/subject-2029200.csv","xpyriment","Interactive Ising","3.0.4","0","m","NA","NA","m","281","NA","NA","281","legacy","experiment","2029200","even","legacy","38456","NA","NA","NA","NA","81872","NA","NA","81156","81573","1836","81872","79639","79634","81572","1834","CogMod 2015 Experiment","14","3739","14","yes","1024"
"1","1600","150","15","100","100","266","266","white","no","xpyriment","legacy","legacy","0","uniform","1","1","m","0","0","0","0","0","14","NA","NA","14","14","0","14","14","14","14","0","11/29/15 16:59:38","Default description","no","mono","no","18","black","Ok","768","legacy","C:/Dropbox/RUG_private/Master/Cognitive modeling2015/Assignment data collection/subject-2029200.csv","xpyriment","Interactive Ising","3.0.4","0","m","NA","NA","m","262","NA","NA","262","legacy","experiment","2029200","even","legacy","38456","NA","NA","NA","NA","85605","NA","NA","83722","85339","1836","85605","82206","82187","85339","1834","CogMod 2015 Experiment","15","4001","15","yes","1024"
"1","1200","150","15","100","100","267","267","white","no","xpyriment","legacy","legacy","0","uniform","1","1","m","0","0","0","0","0","15","NA","NA","15","15","0","15","15","15","15","0","11/29/15 16:59:38","Default description","no","mono","no","18","black","Ok","768","legacy","C:/Dropbox/RUG_private/Master/Cognitive modeling2015/Assignment data collection/subject-2029200.csv","xpyriment","Interactive Ising","3.0.4","0","m","NA","NA","m","274","NA","NA","274","legacy","experiment","2029200","even","legacy","38456","NA","NA","NA","NA","88939","NA","NA","87440","88657","1836","88939","85922","85906","88656","1834","CogMod 2015 Experiment","16","4275","16","yes","1024"
"1","400","150","15","100","100","267","267","white","no","xpyriment","legacy","legacy","0","uniform","1","1","m","0","0","0","0","0","16","NA","NA","16","16","0","16","16","16","16","0","11/29/15 16:59:38","Default description","no","mono","no","18","black","Ok","768","legacy","C:/Dropbox/RUG_private/Master/Cognitive modeling2015/Assignment data collection/subject-2029200.csv","xpyriment","Interactive Ising","3.0.4","0","m","NA","NA","m","272","NA","NA","272","legacy","experiment","2029200","even","legacy","38456","NA","NA","NA","NA","91473","NA","NA","90773","91190","1836","91473","89256","89250","91190","1834","CogMod 2015 Experiment","17","4547","17","yes","1024"
"1","400","150","15","100","100","266","266","white","no","xpyriment","legacy","legacy","0","uniform","1","1","m","0","0","0","0","0","17","NA","NA","17","17","0","17","17","17","17","0","11/29/15 16:59:38","Default description","no","mono","no","18","black","Ok","768","legacy","C:/Dropbox/RUG_private/Master/Cognitive modeling2015/Assignment data collection/subject-2029200.csv","xpyriment","Interactive Ising","3.0.4","0","m","NA","NA","m","257","NA","NA","257","legacy","experiment","2029200","even","legacy","38456","NA","NA","NA","NA","94006","NA","NA","93323","93740","1836","94006","91806","91791","93739","1834","CogMod 2015 Experiment","18","4804","18","yes","1024"
"1","1600","-150","15","100","100","264","264","white","no","xpyriment","legacy","legacy","0","uniform","1","1","z","0","0","0","0","0","18","NA","NA","18","18","0","18","18","18","18","0","11/29/15 16:59:38","Default description","no","mono","no","18","black","Ok","768","legacy","C:/Dropbox/RUG_private/Master/Cognitive modeling2015/Assignment data collection/subject-2029200.csv","xpyriment","Interactive Ising","3.0.4","0","z","NA","NA","z","215","NA","NA","215","legacy","experiment","2029200","even","legacy","38456","NA","NA","NA","NA","97689","NA","NA","95839","97456","1836","97689","94323","94312","97456","1834","CogMod 2015 Experiment","19","5019","19","yes","1024"
"1","400","-150","15","100","100","262","262","white","no","xpyriment","legacy","legacy","0","uniform","1","1","z","0","0","0","0","0","19","NA","NA","19","19","0","19","19","19","19","0","11/29/15 16:59:38","Default description","no","mono","no","18","black","Ok","768","legacy","C:/Dropbox/RUG_private/Master/Cognitive modeling2015/Assignment data collection/subject-2029200.csv","xpyriment","Interactive Ising","3.0.4","0","z","NA","NA","z","238","NA","NA","238","legacy","experiment","2029200","even","legacy","38456","NA","NA","NA","NA","100189","NA","NA","99522","99939","1836","100189","98006","97990","99939","1834","CogMod 2015 Experiment","20","5257","20","yes","1024"
"1","800","-150","15","100","100","262","262","white","no","xpyriment","legacy","legacy","0","uniform","1","1","z","0","0","0","0","0","20","NA","NA","20","20","0","20","20","20","20","0","11/29/15 16:59:38","Default description","no","mono","no","18","black","Ok","768","legacy","C:/Dropbox/RUG_private/Master/Cognitive modeling2015/Assignment data collection/subject-2029200.csv","xpyriment","Interactive Ising","3.0.4","0","z","NA","NA","z","245","NA","NA","245","legacy","experiment","2029200","even","legacy","38456","NA","NA","NA","NA","103089","NA","NA","102022","102839","1836","103089","100506","100496","102839","1834","CogMod 2015 Experiment","21","5502","21","yes","1024"
"1","400","-150","15","100","100","262","262","white","no","xpyriment","legacy","legacy","0","uniform","1","1","z","0","0","0","0","0","21","NA","NA","21","21","0","21","21","21","21","0","11/29/15 16:59:38","Default description","no","mono","no","18","black","Ok","768","legacy","C:/Dropbox/RUG_private/Master/Cognitive modeling2015/Assignment data collection/subject-2029200.csv","xpyriment","Interactive Ising","3.0.4","0","z","NA","NA","z","280","NA","NA","280","legacy","experiment","2029200","even","legacy","38456","NA","NA","NA","NA","105623","NA","NA","104923","105340","1836","105623","103405","103392","105340","1834","CogMod 2015 Experiment","22","5782","22","yes","1024"
"1","1600","150","15","100","100","263","263","white","no","xpyriment","legacy","legacy","0","uniform","1","1","m","0","0","0","0","0","22","NA","NA","22","22","0","22","22","22","22","0","11/29/15 16:59:38","Default description","no","mono","no","18","black","Ok","768","legacy","C:/Dropbox/RUG_private/Master/Cognitive modeling2015/Assignment data collection/subject-2029200.csv","xpyriment","Interactive Ising","3.0.4","0","m","NA","NA","m","267","NA","NA","267","legacy","experiment","2029200","even","legacy","38456","NA","NA","NA","NA","109356","NA","NA","107456","109073","1836","109356","105940","105929","109073","1834","CogMod 2015 Experiment","23","6049","23","yes","1024"
"1","1600","150","15","100","100","264","264","white","no","xpyriment","legacy","legacy","0","uniform","1","1","m","0","0","0","0","0","23","NA","NA","23","23","0","23","23","23","23","0","11/29/15 16:59:38","Default description","no","mono","no","18","black","Ok","768","legacy","C:/Dropbox/RUG_private/Master/Cognitive modeling2015/Assignment data collection/subject-2029200.csv","xpyriment","Interactive Ising","3.0.4","0","m","NA","NA","m","299","NA","NA","299","legacy","experiment","2029200","even","legacy","38456","NA","NA","NA","NA","113123","NA","NA","111190","112806","1836","113123","109673","109665","112806","1834","CogMod 2015 Experiment","24","6348","24","yes","1024"
"1","1600","150","15","100","100","265","265","white","no","xpyriment","legacy","legacy","0","uniform","1","1","m","0","0","0","0","0","24","NA","NA","24","24","0","24","24","24","24","0","11/29/15 16:59:38","Default description","no","mono","no","18","black","Ok","768","legacy","C:/Dropbox/RUG_private/Master/Cognitive modeling2015/Assignment data collection/subject-2029200.csv","xpyriment","Interactive Ising","3.0.4","0","m","NA","NA","m","291","NA","NA","291","legacy","experiment","2029200","even","legacy","38456","NA","NA","NA","NA","116872","NA","NA","114956","116573","1836","116872","113439","113425","116573","1834","CogMod 2015 Experiment","25","6639","25","yes","1024"
"1","1200","-150","15","100","100","265","265","white","no","xpyriment","legacy","legacy","0","uniform","1","1","z","0","0","0","0","0","25","NA","NA","25","25","0","25","25","25","25","0","11/29/15 16:59:38","Default description","no","mono","no","18","black","Ok","768","legacy","C:/Dropbox/RUG_private/Master/Cognitive modeling2015/Assignment data collection/subject-2029200.csv","xpyriment","Interactive Ising","3.0.4","0","z","NA","NA","z","267","NA","NA","267","legacy","experiment","2029200","even","legacy","38456","NA","NA","NA","NA","120206","NA","NA","118706","119923","1836","120206","117189","117175","119923","1834","CogMod 2015 Experiment","26","6906","26","yes","1024"
"1","1600","150","15","100","100","264","264","white","no","xpyriment","legacy","legacy","0","uniform","1","1","m","0","0","0","0","0","26","NA","NA","26","26","0","26","26","26","26","0","11/29/15 16:59:38","Default description","no","mono","no","18","black","Ok","768","legacy","C:/Dropbox/RUG_private/Master/Cognitive modeling2015/Assignment data collection/subject-2029200.csv","xpyriment","Interactive Ising","3.0.4","0","m","NA","NA","m","242","NA","NA","242","legacy","experiment","2029200","even","legacy","38456","NA","NA","NA","NA","123906","NA","NA","122040","123657","1836","123906","120522","120512","123657","1834","CogMod 2015 Experiment","27","7148","27","yes","1024"
"1","800","150","15","100","100","264","264","white","no","xpyriment","legacy","legacy","0","uniform","1","1","m","0","0","0","0","0","27","NA","NA","27","27","0","27","27","27","27","0","11/29/15 16:59:38","Default description","no","mono","no","18","black","Ok","768","legacy","C:/Dropbox/RUG_private/Master/Cognitive modeling2015/Assignment data collection/subject-2029200.csv","xpyriment","Interactive Ising","3.0.4","0","m","NA","NA","m","256","NA","NA","256","legacy","experiment","2029200","even","legacy","38456","NA","NA","NA","NA","126823","NA","NA","125740","126557","1836","126823","124223","124210","126557","1834","CogMod 2015 Experiment","28","7404","28","yes","1024"
"1","800","150","15","100","100","264","264","white","no","xpyriment","legacy","legacy","0","uniform","1","1","m","0","0","0","0","0","28","NA","NA","28","28","0","28","28","28","28","0","11/29/15 16:59:38","Default description","no","mono","no","18","black","Ok","768","legacy","C:/Dropbox/RUG_private/Master/Cognitive modeling2015/Assignment data collection/subject-2029200.csv","xpyriment","Interactive Ising","3.0.4","0","m","NA","NA","m","262","NA","NA","262","legacy","experiment","2029200","even","legacy","38456","NA","NA","NA","NA","129739","NA","NA","128656","129473","1836","129740","127140","127126","129473","1834","CogMod 2015 Experiment","29","7666","29","yes","1024"
"1","1200","-150","15","100","100","263","263","white","no","xpyriment","legacy","legacy","0","uniform","1","1","z","0","0","0","0","0","29","NA","NA","29","29","0","29","29","29","29","0","11/29/15 16:59:38","Default description","no","mono","no","18","black","Ok","768","legacy","C:/Dropbox/RUG_private/Master/Cognitive modeling2015/Assignment data collection/subject-2029200.csv","xpyriment","Interactive Ising","3.0.4","0","z","NA","NA","z","248","NA","NA","248","legacy","experiment","2029200","even","legacy","38456","NA","NA","NA","NA","133056","NA","NA","131573","132790","1836","133056","130056","130050","132789","1834","CogMod 2015 Experiment","30","7914","30","yes","1024"
"1","1600","150","15","100","100","262","262","white","no","xpyriment","legacy","legacy","0","uniform","1","1","m","0","0","0","0","0","30","NA","NA","30","30","0","30","30","30","30","0","11/29/15 16:59:38","Default description","no","mono","no","18","black","Ok","768","legacy","C:/Dropbox/RUG_private/Master/Cognitive modeling2015/Assignment data collection/subject-2029200.csv","xpyriment","Interactive Ising","3.0.4","0","m","NA","NA","m","235","NA","NA","235","legacy","experiment","2029200","even","legacy","38456","NA","NA","NA","NA","136756","NA","NA","134889","136506","1836","136756","133373","133357","136506","1834","CogMod 2015 Experiment","31","8149","31","yes","1024"
"1","400","150","15","100","100","263","263","white","no","xpyriment","legacy","legacy","0","uniform","1","1","m","0","0","0","0","0","31","NA","NA","31","31","0","31","31","31","31","0","11/29/15 16:59:38","Default description","no","mono","no","18","black","Ok","768","legacy","C:/Dropbox/RUG_private/Master/Cognitive modeling2015/Assignment data collection/subject-2029200.csv","xpyriment","Interactive Ising","3.0.4","0","m","NA","NA","m","296","NA","NA","296","legacy","experiment","2029200","even","legacy","38456","NA","NA","NA","NA","139307","NA","NA","138589","139006","1836","139307","137072","137063","139006","1834","CogMod 2015 Experiment","32","8445","32","yes","1024"
"1","1600","-150","15","100","100","263","263","white","no","xpyriment","legacy","legacy","0","uniform","1","1","z","0","0","0","0","0","32","NA","NA","32","32","0","32","32","32","32","0","11/29/15 16:59:38","Default description","no","mono","no","18","black","Ok","768","legacy","C:/Dropbox/RUG_private/Master/Cognitive modeling2015/Assignment data collection/subject-2029200.csv","xpyriment","Interactive Ising","3.0.4","0","z","NA","NA","z","256","NA","NA","256","legacy","experiment","2029200","even","legacy","38456","NA","NA","NA","NA","143023","NA","NA","141140","142757","1836","143023","139623","139609","142757","1834","CogMod 2015 Experiment","33","8701","33","yes","1024"
"1","400","150","15","100","100","264","264","white","no","xpyriment","legacy","legacy","0","uniform","1","1","m","0","0","0","0","0","33","NA","NA","33","33","0","33","33","33","33","0","11/29/15 16:59:38","Default description","no","mono","no","18","black","Ok","768","legacy","C:/Dropbox/RUG_private/Master/Cognitive modeling2015/Assignment data collection/subject-2029200.csv","xpyriment","Interactive Ising","3.0.4","0","m","NA","NA","m","288","NA","NA","288","legacy","experiment","2029200","even","legacy","38456","NA","NA","NA","NA","145573","NA","NA","144857","145274","1836","145573","143340","143326","145273","1834","CogMod 2015 Experiment","34","8989","34","yes","1024"
"1","400","150","15","100","100","265","265","white","no","xpyriment","legacy","legacy","0","uniform","1","1","m","0","0","0","0","0","34","NA","NA","34","34","0","34","34","34","34","0","11/29/15 16:59:38","Default description","no","mono","no","18","black","Ok","768","legacy","C:/Dropbox/RUG_private/Master/Cognitive modeling2015/Assignment data collection/subject-2029200.csv","xpyriment","Interactive Ising","3.0.4","0","m","NA","NA","m","296","NA","NA","296","legacy","experiment","2029200","even","legacy","38456","NA","NA","NA","NA","148123","NA","NA","147406","147823","1836","148123","145890","145874","147823","1834","CogMod 2015 Experiment","35","9285","35","yes","1024"
"1","800","-150","15","100","100","265","265","white","no","xpyriment","legacy","legacy","0","uniform","1","1","z","0","0","0","0","0","35","NA","NA","35","35","0","35","35","35","35","0","11/29/15 16:59:38","Default description","no","mono","no","18","black","Ok","768","legacy","C:/Dropbox/RUG_private/Master/Cognitive modeling2015/Assignment data collection/subject-2029200.csv","xpyriment","Interactive Ising","3.0.4","0","z","NA","NA","z","259","NA","NA","259","legacy","experiment","2029200","even","legacy","38456","NA","NA","NA","NA","151056","NA","NA","149973","150790","1836","151056","148459","148444","150790","1834","CogMod 2015 Experiment","36","9544","36","yes","1024"
"1","1600","-150","15","100","100","264","264","white","no","xpyriment","legacy","legacy","0","uniform","1","1","z","0","0","0","0","0","36","NA","NA","36","36","0","36","36","36","36","0","11/29/15 16:59:38","Default description","no","mono","no","18","black","Ok","768","legacy","C:/Dropbox/RUG_private/Master/Cognitive modeling2015/Assignment data collection/subject-2029200.csv","xpyriment","Interactive Ising","3.0.4","0","z","NA","NA","z","245","NA","NA","245","legacy","experiment","2029200","even","legacy","38456","NA","NA","NA","NA","154756","NA","NA","152890","154506","1836","154756","151373","151363","154506","1834","CogMod 2015 Experiment","37","9789","37","yes","1024"
"1","800","150","15","100","100","264","264","white","no","xpyriment","legacy","legacy","0","uniform","1","1","m","0","0","0","0","0","37","NA","NA","37","37","0","37","37","37","37","0","11/29/15 16:59:38","Default description","no","mono","no","18","black","Ok","768","legacy","C:/Dropbox/RUG_private/Master/Cognitive modeling2015/Assignment data collection/subject-2029200.csv","xpyriment","Interactive Ising","3.0.4","0","m","NA","NA","m","271","NA","NA","271","legacy","experiment","2029200","even","legacy","38456","NA","NA","NA","NA","157690","NA","NA","156589","157407","1836","157690","155073","155056","157407","1834","CogMod 2015 Experiment","38","10060","38","yes","1024"
"1","400","-150","15","100","100","264","264","white","no","xpyriment","legacy","legacy","0","uniform","1","1","z","0","0","0","0","0","38","NA","NA","38","38","0","38","38","38","38","0","11/29/15 16:59:38","Default description","no","mono","no","18","black","Ok","768","legacy","C:/Dropbox/RUG_private/Master/Cognitive modeling2015/Assignment data collection/subject-2029200.csv","xpyriment","Interactive Ising","3.0.4","0","z","NA","NA","z","253","NA","NA","253","legacy","experiment","2029200","even","legacy","38456","NA","NA","NA","NA","160207","NA","NA","159524","159940","1836","160207","158007","157999","159940","1834","CogMod 2015 Experiment","39","10313","39","yes","1024"
"1","1600","-150","15","100","100","264","264","white","no","xpyriment","legacy","legacy","0","uniform","1","1","z","0","0","0","0","0","39","NA","NA","39","39","0","39","39","39","39","0","11/29/15 16:59:38","Default description","no","mono","no","18","black","Ok","768","legacy","C:/Dropbox/RUG_private/Master/Cognitive modeling2015/Assignment data collection/subject-2029200.csv","xpyriment","Interactive Ising","3.0.4","0","z","NA","NA","z","270","NA","NA","270","legacy","experiment","2029200","even","legacy","38456","NA","NA","NA","NA","163940","NA","NA","162040","163657","1836","163940","160523","160511","163657","1834","CogMod 2015 Experiment","40","10583","40","yes","1024"
"1","1200","150","15","100","100","263","263","white","no","xpyriment","legacy","legacy","0","uniform","1","1","m","0","0","0","0","0","40","NA","NA","40","40","0","40","40","40","40","0","11/29/15 16:59:38","Default description","no","mono","no","18","black","Ok","768","legacy","C:/Dropbox/RUG_private/Master/Cognitive modeling2015/Assignment data collection/subject-2029200.csv","xpyriment","Interactive Ising","3.0.4","0","m","NA","NA","m","234","NA","NA","234","legacy","experiment","2029200","even","legacy","38456","NA","NA","NA","NA","167240","NA","NA","165773","166990","1836","167240","164256","164243","166990","1834","CogMod 2015 Experiment","41","10817","41","yes","1024"
"1","1200","150","15","100","100","263","263","white","no","xpyriment","legacy","legacy","0","uniform","1","1","m","0","0","0","0","0","41","NA","NA","41","41","0","41","41","41","41","0","11/29/15 16:59:38","Default description","no","mono","no","18","black","Ok","768","legacy","C:/Dropbox/RUG_private/Master/Cognitive modeling2015/Assignment data collection/subject-2029200.csv","xpyriment","Interactive Ising","3.0.4","0","m","NA","NA","m","265","NA","NA","265","legacy","experiment","2029200","even","legacy","38456","NA","NA","NA","NA","170573","NA","NA","169073","170290","1836","170573","167556","167543","170290","1834","CogMod 2015 Experiment","42","11082","42","yes","1024"
"1","800","-150","15","100","100","263","263","white","no","xpyriment","legacy","legacy","0","uniform","1","1","z","0","0","0","0","0","42","NA","NA","42","42","0","42","42","42","42","0","11/29/15 16:59:38","Default description","no","mono","no","18","black","Ok","768","legacy","C:/Dropbox/RUG_private/Master/Cognitive modeling2015/Assignment data collection/subject-2029200.csv","xpyriment","Interactive Ising","3.0.4","0","z","NA","NA","z","239","NA","NA","239","legacy","experiment","2029200","even","legacy","38456","NA","NA","NA","NA","173473","NA","NA","172406","173223","1836","173473","170889","170872","173223","1834","CogMod 2015 Experiment","43","11321","43","yes","1024"
"1","1200","-150","15","100","100","262","262","white","no","xpyriment","legacy","legacy","0","uniform","1","1","z","0","0","0","0","0","43","NA","NA","43","43","0","43","43","43","43","0","11/29/15 16:59:38","Default description","no","mono","no","18","black","Ok","768","legacy","C:/Dropbox/RUG_private/Master/Cognitive modeling2015/Assignment data collection/subject-2029200.csv","xpyriment","Interactive Ising","3.0.4","0","z","NA","NA","z","234","NA","NA","234","legacy","experiment","2029200","even","legacy","38456","NA","NA","NA","NA","176773","NA","NA","175307","176524","1836","176774","173789","173779","176524","1834","CogMod 2015 Experiment","44","11555","44","yes","1024"
"1","800","150","15","100","100","263","263","white","no","xpyriment","legacy","legacy","0","uniform","1","1","m","0","0","0","0","0","44","NA","NA","44","44","0","44","44","44","44","0","11/29/15 16:59:38","Default description","no","mono","no","18","black","Ok","768","legacy","C:/Dropbox/RUG_private/Master/Cognitive modeling2015/Assignment data collection/subject-2029200.csv","xpyriment","Interactive Ising","3.0.4","0","m","NA","NA","m","306","NA","NA","306","legacy","experiment","2029200","even","legacy","38456","NA","NA","NA","NA","179740","NA","NA","178607","179424","1836","179740","177090","177075","179423","1834","CogMod 2015 Experiment","45","11861","45","yes","1024"
"1","1200","150","15","100","100","263","263","white","no","xpyriment","legacy","legacy","0","uniform","1","1","m","0","0","0","0","0","45","NA","NA","45","45","0","45","45","45","45","0","11/29/15 16:59:38","Default description","no","mono","no","18","black","Ok","768","legacy","C:/Dropbox/RUG_private/Master/Cognitive modeling2015/Assignment data collection/subject-2029200.csv","xpyriment","Interactive Ising","3.0.4","0","m","NA","NA","m","255","NA","NA","255","legacy","experiment","2029200","even","legacy","38456","NA","NA","NA","NA","183056","NA","NA","181573","182790","1836","183057","180057","180043","182790","1834","CogMod 2015 Experiment","46","12116","46","yes","1024"
"1","1200","-150","15","100","100","263","263","white","no","xpyriment","legacy","legacy","0","uniform","1","1","z","0","0","0","0","0","46","NA","NA","46","46","0","46","46","46","46","0","11/29/15 16:59:38","Default description","no","mono","no","18","black","Ok","768","legacy","C:/Dropbox/RUG_private/Master/Cognitive modeling2015/Assignment data collection/subject-2029200.csv","xpyriment","Interactive Ising","3.0.4","0","z","NA","NA","z","250","NA","NA","250","legacy","experiment","2029200","even","legacy","38456","NA","NA","NA","NA","186373","NA","NA","184890","186107","1836","186373","183373","183357","186106","1834","CogMod 2015 Experiment","47","12366","47","yes","1024"
"1","400","150","15","100","100","263","263","white","no","xpyriment","legacy","legacy","0","uniform","1","1","m","0","0","0","0","0","47","NA","NA","47","47","0","47","47","47","47","0","11/29/15 16:59:38","Default description","no","mono","no","18","black","Ok","768","legacy","C:/Dropbox/RUG_private/Master/Cognitive modeling2015/Assignment data collection/subject-2029200.csv","xpyriment","Interactive Ising","3.0.4","0","m","NA","NA","m","304","NA","NA","304","legacy","experiment","2029200","even","legacy","38456","NA","NA","NA","NA","188940","NA","NA","188206","188623","1836","188940","186690","186683","188623","1834","CogMod 2015 Experiment","48","12670","48","yes","1024"
"1","1200","150","15","100","100","264","264","white","no","xpyriment","legacy","legacy","0","uniform","1","1","m","0","0","0","0","0","48","NA","NA","48","48","0","48","48","48","48","0","11/29/15 16:59:38","Default description","no","mono","no","18","black","Ok","768","legacy","C:/Dropbox/RUG_private/Master/Cognitive modeling2015/Assignment data collection/subject-2029200.csv","xpyriment","Interactive Ising","3.0.4","0","m","NA","NA","m","280","NA","NA","280","legacy","experiment","2029200","even","legacy","38456","NA","NA","NA","NA","192307","NA","NA","190790","192008","1836","192307","189273","189255","192007","1834","CogMod 2015 Experiment","49","12950","49","yes","1024"
"1","800","-150","15","100","100","263","263","white","no","xpyriment","legacy","legacy","0","uniform","1","1","z","0","0","0","0","0","49","NA","NA","49","49","0","49","49","49","49","0","11/29/15 16:59:38","Default description","no","mono","no","18","black","Ok","768","legacy","C:/Dropbox/RUG_private/Master/Cognitive modeling2015/Assignment data collection/subject-2029200.csv","xpyriment","Interactive Ising","3.0.4","0","z","NA","NA","z","240","NA","NA","240","legacy","experiment","2029200","even","legacy","38456","NA","NA","NA","NA","195207","NA","NA","194140","194957","1836","195207","192624","192610","194957","1834","CogMod 2015 Experiment","50","13190","50","yes","1024"
"1","1200","-150","15","100","100","263","263","white","no","xpyriment","legacy","legacy","0","uniform","1","1","z","0","0","0","0","0","50","NA","NA","50","50","0","50","50","50","50","0","11/29/15 16:59:38","Default description","no","mono","no","18","black","Ok","768","legacy","C:/Dropbox/RUG_private/Master/Cognitive modeling2015/Assignment data collection/subject-2029200.csv","xpyriment","Interactive Ising","3.0.4","0","z","NA","NA","z","265","NA","NA","265","legacy","experiment","2029200","even","legacy","38456","NA","NA","NA","NA","198540","NA","NA","197040","198257","1836","198540","195524","195515","198257","1834","CogMod 2015 Experiment","51","13455","51","yes","1024"
"1","400","150","15","100","100","265","265","white","no","xpyriment","legacy","legacy","0","uniform","1","1","m","0","0","0","0","0","51","NA","NA","51","51","0","51","51","51","51","0","11/29/15 16:59:38","Default description","no","mono","no","18","black","Ok","768","legacy","C:/Dropbox/RUG_private/Master/Cognitive modeling2015/Assignment data collection/subject-2029200.csv","xpyriment","Interactive Ising","3.0.4","0","m","NA","NA","m","340","NA","NA","340","legacy","experiment","2029200","even","legacy","38456","NA","NA","NA","NA","201140","NA","NA","200374","200790","1836","201140","198857","198842","200790","1834","CogMod 2015 Experiment","52","13795","52","yes","1024"
"1","1600","-150","15","100","100","265","265","white","no","xpyriment","legacy","legacy","0","uniform","1","1","z","0","0","0","0","0","52","NA","NA","52","52","0","52","52","52","52","0","11/29/15 16:59:38","Default description","no","mono","no","18","black","Ok","768","legacy","C:/Dropbox/RUG_private/Master/Cognitive modeling2015/Assignment data collection/subject-2029200.csv","xpyriment","Interactive Ising","3.0.4","0","z","NA","NA","z","259","NA","NA","259","legacy","experiment","2029200","even","legacy","38456","NA","NA","NA","NA","204873","NA","NA","202990","204607","1836","204873","201474","201450","204606","1834","CogMod 2015 Experiment","53","14054","53","yes","1024"
"1","400","-150","15","100","100","267","267","white","no","xpyriment","legacy","legacy","0","uniform","1","1","z","0","0","0","0","0","53","NA","NA","53","53","0","53","53","53","53","0","11/29/15 16:59:38","Default description","no","mono","no","18","black","Ok","768","legacy","C:/Dropbox/RUG_private/Master/Cognitive modeling2015/Assignment data collection/subject-2029200.csv","xpyriment","Interactive Ising","3.0.4","0","z","NA","NA","z","385","NA","NA","385","legacy","experiment","2029200","even","legacy","38456","NA","NA","NA","NA","207523","NA","NA","206707","207123","1836","207523","205190","205175","207123","1834","CogMod 2015 Experiment","54","14439","54","yes","1024"
"1","1600","-150","15","100","100","267","267","white","no","xpyriment","legacy","legacy","0","uniform","1","1","z","0","0","0","0","0","54","NA","NA","54","54","0","54","54","54","54","0","11/29/15 16:59:38","Default description","no","mono","no","18","black","Ok","768","legacy","C:/Dropbox/RUG_private/Master/Cognitive modeling2015/Assignment data collection/subject-2029200.csv","xpyriment","Interactive Ising","3.0.4","0","z","NA","NA","z","270","NA","NA","270","legacy","experiment","2029200","even","legacy","38456","NA","NA","NA","NA","211257","NA","NA","209357","210974","1836","211257","207840","207832","210974","1834","CogMod 2015 Experiment","55","14709","55","yes","1024"
"1","1200","150","15","100","100","266","266","white","no","xpyriment","legacy","legacy","0","uniform","1","1","m","0","0","0","0","0","55","NA","NA","55","55","0","55","55","55","55","0","11/29/15 16:59:38","Default description","no","mono","no","18","black","Ok","768","legacy","C:/Dropbox/RUG_private/Master/Cognitive modeling2015/Assignment data collection/subject-2029200.csv","xpyriment","Interactive Ising","3.0.4","0","m","NA","NA","m","229","NA","NA","229","legacy","experiment","2029200","even","legacy","38456","NA","NA","NA","NA","214540","NA","NA","213090","214308","1836","214540","211574","211563","214307","1834","CogMod 2015 Experiment","56","14938","56","yes","1024"
"1","400","-150","15","100","100","267","267","white","no","xpyriment","legacy","legacy","0","uniform","1","1","z","0","0","0","0","0","56","NA","NA","56","56","0","56","56","56","56","0","11/29/15 16:59:38","Default description","no","mono","no","18","black","Ok","768","legacy","C:/Dropbox/RUG_private/Master/Cognitive modeling2015/Assignment data collection/subject-2029200.csv","xpyriment","Interactive Ising","3.0.4","0","z","NA","NA","z","299","NA","NA","299","legacy","experiment","2029200","even","legacy","38456","NA","NA","NA","NA","217123","NA","NA","216390","216807","1836","217124","214874","214860","216807","1834","CogMod 2015 Experiment","57","15237","57","yes","1024"
"1","800","-150","15","100","100","267","267","white","no","xpyriment","legacy","legacy","0","uniform","1","1","z","0","0","0","0","0","57","NA","NA","57","57","0","57","57","57","57","0","11/29/15 16:59:38","Default description","no","mono","no","18","black","Ok","768","legacy","C:/Dropbox/RUG_private/Master/Cognitive modeling2015/Assignment data collection/subject-2029200.csv","xpyriment","Interactive Ising","3.0.4","0","z","NA","NA","z","273","NA","NA","273","legacy","experiment","2029200","even","legacy","38456","NA","NA","NA","NA","220057","NA","NA","218957","219774","1836","220057","217440","217422","219773","1834","CogMod 2015 Experiment","58","15510","58","yes","1024"
"1","1600","-150","15","100","100","267","267","white","no","xpyriment","legacy","legacy","0","uniform","1","1","z","0","0","0","0","0","58","NA","NA","58","58","0","58","58","58","58","0","11/29/15 16:59:38","Default description","no","mono","no","18","black","Ok","768","legacy","C:/Dropbox/RUG_private/Master/Cognitive modeling2015/Assignment data collection/subject-2029200.csv","xpyriment","Interactive Ising","3.0.4","0","z","NA","NA","z","274","NA","NA","274","legacy","experiment","2029200","even","legacy","38456","NA","NA","NA","NA","223806","NA","NA","221907","223523","1836","223807","220393","220377","223523","1834","CogMod 2015 Experiment","59","15784","59","yes","1024"
"1","800","150","15","100","100","267","267","white","no","xpyriment","legacy","legacy","0","uniform","1","1","m","0","0","0","0","0","59","NA","NA","59","59","0","59","59","59","59","0","11/29/15 16:59:38","Default description","no","mono","no","18","black","Ok","768","legacy","C:/Dropbox/RUG_private/Master/Cognitive modeling2015/Assignment data collection/subject-2029200.csv","xpyriment","Interactive Ising","3.0.4","0","m","NA","NA","m","289","NA","NA","289","legacy","experiment","2029200","even","legacy","38456","NA","NA","NA","NA","226757","NA","NA","225640","226457","1836","226757","224123","224108","226457","1834","CogMod 2015 Experiment","60","16073","60","yes","1024"
"1","800","-150","15","100","100","267","267","white","no","xpyriment","legacy","legacy","0","uniform","1","1","z","0","0","0","0","0","60","NA","NA","60","60","0","60","60","60","60","0","11/29/15 16:59:38","Default description","no","mono","no","18","black","Ok","768","legacy","C:/Dropbox/RUG_private/Master/Cognitive modeling2015/Assignment data collection/subject-2029200.csv","xpyriment","Interactive Ising","3.0.4","0","z","NA","NA","z","268","NA","NA","268","legacy","experiment","2029200","even","legacy","38456","NA","NA","NA","NA","229691","NA","NA","228591","229408","1836","229691","227074","227055","229407","1834","CogMod 2015 Experiment","61","16341","61","yes","1024"
"1","1200","150","15","100","100","267","267","white","no","xpyriment","legacy","legacy","0","uniform","1","1","m","0","0","0","0","0","61","NA","NA","61","61","0","61","61","61","61","0","11/29/15 16:59:38","Default description","no","mono","no","18","black","Ok","768","legacy","C:/Dropbox/RUG_private/Master/Cognitive modeling2015/Assignment data collection/subject-2029200.csv","xpyriment","Interactive Ising","3.0.4","0","m","NA","NA","m","267","NA","NA","267","legacy","experiment","2029200","even","legacy","38456","NA","NA","NA","NA","233040","NA","NA","231541","232758","1836","233040","230024","230005","232757","1834","CogMod 2015 Experiment","62","16608","62","yes","1024"
"1","400","-150","15","100","100","268","268","white","no","xpyriment","legacy","legacy","0","uniform","1","1","z","0","0","0","0","0","62","NA","NA","62","62","0","62","62","62","62","0","11/29/15 16:59:38","Default description","no","mono","no","18","black","Ok","768","legacy","C:/Dropbox/RUG_private/Master/Cognitive modeling2015/Assignment data collection/subject-2029200.csv","xpyriment","Interactive Ising","3.0.4","0","z","NA","NA","z","321","NA","NA","321","legacy","experiment","2029200","even","legacy","38456","NA","NA","NA","NA","235624","NA","NA","234874","235291","1836","235624","233357","233341","235290","1834","CogMod 2015 Experiment","63","16929","63","yes","1024"
"1","1200","-150","15","100","100","269","269","white","no","xpyriment","legacy","legacy","0","uniform","1","1","z","0","0","0","0","0","63","NA","NA","63","63","0","63","63","63","63","0","11/29/15 16:59:38","Default description","no","mono","no","18","black","Ok","768","legacy","C:/Dropbox/RUG_private/Master/Cognitive modeling2015/Assignment data collection/subject-2029200.csv","xpyriment","Interactive Ising","3.0.4","0","z","NA","NA","z","296","NA","NA","296","legacy","experiment","2029200","even","legacy","38456","NA","NA","NA","NA","238973","NA","NA","237457","238674","1836","238973","235940","235924","238674","1834","CogMod 2015 Experiment","64","17225","64","yes","1024"
"1","400","150","15","100","100","270","270","white","no","xpyriment","legacy","legacy","0","uniform","1","1","m","0","0","0","0","0","64","NA","NA","64","64","0","64","64","64","64","0","11/29/15 16:59:38","Default description","no","mono","no","18","black","Ok","768","legacy","C:/Dropbox/RUG_private/Master/Cognitive modeling2015/Assignment data collection/subject-2029200.csv","xpyriment","Interactive Ising","3.0.4","0","m","NA","NA","m","339","NA","NA","339","legacy","experiment","2029200","even","legacy","38456","NA","NA","NA","NA","241573","NA","NA","240807","241224","1836","241573","239290","239275","241224","1834","CogMod 2015 Experiment","65","17564","65","yes","1024"
"1","1200","150","15","100","100","270","270","white","no","xpyriment","legacy","legacy","0","uniform","1","1","m","0","0","0","0","0","65","NA","NA","65","65","0","65","65","65","65","0","11/29/15 16:59:38","Default description","no","mono","no","18","black","Ok","768","legacy","C:/Dropbox/RUG_private/Master/Cognitive modeling2015/Assignment data collection/subject-2029200.csv","xpyriment","Interactive Ising","3.0.4","0","m","NA","NA","m","312","NA","NA","312","legacy","experiment","2029200","even","legacy","38456","NA","NA","NA","NA","244941","NA","NA","243407","244625","1836","244941","241890","241872","244624","1834","CogMod 2015 Experiment","66","17876","66","yes","1024"
"1","800","-150","15","100","100","270","270","white","no","xpyriment","legacy","legacy","0","uniform","1","1","z","0","0","0","0","0","66","NA","NA","66","66","0","66","66","66","66","0","11/29/15 16:59:38","Default description","no","mono","no","18","black","Ok","768","legacy","C:/Dropbox/RUG_private/Master/Cognitive modeling2015/Assignment data collection/subject-2029200.csv","xpyriment","Interactive Ising","3.0.4","0","z","NA","NA","z","270","NA","NA","270","legacy","experiment","2029200","even","legacy","38456","NA","NA","NA","NA","247874","NA","NA","246774","247591","1836","247874","245257","245242","247591","1834","CogMod 2015 Experiment","67","18146","67","yes","1024"
"1","1600","-150","15","100","100","271","271","white","no","xpyriment","legacy","legacy","0","uniform","1","1","z","0","0","0","0","0","67","NA","NA","67","67","0","67","67","67","67","0","11/29/15 16:59:38","Default description","no","mono","no","18","black","Ok","768","legacy","C:/Dropbox/RUG_private/Master/Cognitive modeling2015/Assignment data collection/subject-2029200.csv","xpyriment","Interactive Ising","3.0.4","0","z","NA","NA","z","339","NA","NA","339","legacy","experiment","2029200","even","legacy","38456","NA","NA","NA","NA","251674","NA","NA","249707","251324","1836","251674","248191","248175","251324","1834","CogMod 2015 Experiment","68","18485","68","yes","1024"
"1","1600","150","15","100","100","271","271","white","no","xpyriment","legacy","legacy","0","uniform","1","1","m","0","0","0","0","0","68","NA","NA","68","68","0","68","68","68","68","0","11/29/15 16:59:38","Default description","no","mono","no","18","black","Ok","768","legacy","C:/Dropbox/RUG_private/Master/Cognitive modeling2015/Assignment data collection/subject-2029200.csv","xpyriment","Interactive Ising","3.0.4","0","m","NA","NA","m","258","NA","NA","258","legacy","experiment","2029200","even","legacy","38456","NA","NA","NA","NA","255390","NA","NA","253507","255124","1836","255390","251990","251976","255124","1834","CogMod 2015 Experiment","69","18743","69","yes","1024"
"1","1600","-150","15","100","100","271","271","white","no","xpyriment","legacy","legacy","0","uniform","1","1","z","0","0","0","0","0","69","NA","NA","69","69","0","69","69","69","69","0","11/29/15 16:59:38","Default description","no","mono","no","18","black","Ok","768","legacy","C:/Dropbox/RUG_private/Master/Cognitive modeling2015/Assignment data collection/subject-2029200.csv","xpyriment","Interactive Ising","3.0.4","0","z","NA","NA","z","279","NA","NA","279","legacy","experiment","2029200","even","legacy","38456","NA","NA","NA","NA","259123","NA","NA","257224","258840","1836","259123","255707","255699","258840","1834","CogMod 2015 Experiment","70","19022","70","yes","1024"
"1","400","150","15","100","100","272","272","white","no","xpyriment","legacy","legacy","0","uniform","1","1","m","0","0","0","0","0","70","NA","NA","70","70","0","70","70","70","70","0","11/29/15 16:59:38","Default description","no","mono","no","18","black","Ok","768","legacy","C:/Dropbox/RUG_private/Master/Cognitive modeling2015/Assignment data collection/subject-2029200.csv","xpyriment","Interactive Ising","3.0.4","0","m","NA","NA","m","295","NA","NA","295","legacy","experiment","2029200","even","legacy","38456","NA","NA","NA","NA","261674","NA","NA","260957","261373","1836","261674","259440","259424","261373","1834","CogMod 2015 Experiment","71","19317","71","yes","1024"
"1","1200","-150","15","100","100","271","271","white","no","xpyriment","legacy","legacy","0","uniform","1","1","z","0","0","0","0","0","71","NA","NA","71","71","0","71","71","71","71","0","11/29/15 16:59:38","Default description","no","mono","no","18","black","Ok","768","legacy","C:/Dropbox/RUG_private/Master/Cognitive modeling2015/Assignment data collection/subject-2029200.csv","xpyriment","Interactive Ising","3.0.4","0","z","NA","NA","z","250","NA","NA","250","legacy","experiment","2029200","even","legacy","38456","NA","NA","NA","NA","265007","NA","NA","263524","264741","1836","265008","262008","261981","264741","1834","CogMod 2015 Experiment","72","19567","72","yes","1024"
"1","1600","150","15","100","100","271","271","white","no","xpyriment","legacy","legacy","0","uniform","1","1","m","0","0","0","0","0","72","NA","NA","72","72","0","72","72","72","72","0","11/29/15 16:59:38","Default description","no","mono","no","18","black","Ok","768","legacy","C:/Dropbox/RUG_private/Master/Cognitive modeling2015/Assignment data collection/subject-2029200.csv","xpyriment","Interactive Ising","3.0.4","0","m","NA","NA","m","255","NA","NA","255","legacy","experiment","2029200","even","legacy","38456","NA","NA","NA","NA","268724","NA","NA","266841","268458","1836","268724","265324","265311","268457","1834","CogMod 2015 Experiment","73","19822","73","yes","1024"
"1","400","150","15","100","100","271","271","white","no","xpyriment","legacy","legacy","0","uniform","1","1","m","0","0","0","0","0","73","NA","NA","73","73","0","73","73","73","73","0","11/29/15 16:59:38","Default description","no","mono","no","18","black","Ok","768","legacy","C:/Dropbox/RUG_private/Master/Cognitive modeling2015/Assignment data collection/subject-2029200.csv","xpyriment","Interactive Ising","3.0.4","0","m","NA","NA","m","304","NA","NA","304","legacy","experiment","2029200","even","legacy","38456","NA","NA","NA","NA","271290","NA","NA","270557","270974","1836","271291","269041","269025","270974","1834","CogMod 2015 Experiment","74","20126","74","yes","1024"
"1","1200","150","15","100","100","272","272","white","no","xpyriment","legacy","legacy","0","uniform","1","1","m","0","0","0","0","0","74","NA","NA","74","74","0","74","74","74","74","0","11/29/15 16:59:38","Default description","no","mono","no","18","black","Ok","768","legacy","C:/Dropbox/RUG_private/Master/Cognitive modeling2015/Assignment data collection/subject-2029200.csv","xpyriment","Interactive Ising","3.0.4","0","m","NA","NA","m","280","NA","NA","280","legacy","experiment","2029200","even","legacy","38456","NA","NA","NA","NA","274640","NA","NA","273124","274341","1836","274640","271607","271598","274340","1834","CogMod 2015 Experiment","75","20406","75","yes","1024"
"1","1200","150","15","100","100","272","272","white","no","xpyriment","legacy","legacy","0","uniform","1","1","m","0","0","0","0","0","75","NA","NA","75","75","0","75","75","75","75","0","11/29/15 16:59:38","Default description","no","mono","no","18","black","Ok","768","legacy","C:/Dropbox/RUG_private/Master/Cognitive modeling2015/Assignment data collection/subject-2029200.csv","xpyriment","Interactive Ising","3.0.4","0","m","NA","NA","m","279","NA","NA","279","legacy","experiment","2029200","even","legacy","38456","NA","NA","NA","NA","277973","NA","NA","276474","277691","1836","277974","274957","274940","277690","1834","CogMod 2015 Experiment","76","20685","76","yes","1024"
"1","1200","-150","15","100","100","271","271","white","no","xpyriment","legacy","legacy","0","uniform","1","1","z","0","0","0","0","0","76","NA","NA","76","76","0","76","76","76","76","0","11/29/15 16:59:38","Default description","no","mono","no","18","black","Ok","768","legacy","C:/Dropbox/RUG_private/Master/Cognitive modeling2015/Assignment data collection/subject-2029200.csv","xpyriment","Interactive Ising","3.0.4","0","z","NA","NA","z","244","NA","NA","244","legacy","experiment","2029200","even","legacy","38456","NA","NA","NA","NA","281274","NA","NA","279808","281025","1836","281274","278290","278276","281025","1834","CogMod 2015 Experiment","77","20929","77","yes","1024"
"1","400","-150","15","100","100","272","272","white","no","xpyriment","legacy","legacy","0","uniform","1","1","z","0","0","0","0","0","77","NA","NA","77","77","0","77","77","77","77","0","11/29/15 16:59:38","Default description","no","mono","no","18","black","Ok","768","legacy","C:/Dropbox/RUG_private/Master/Cognitive modeling2015/Assignment data collection/subject-2029200.csv","xpyriment","Interactive Ising","3.0.4","0","z","NA","NA","z","292","NA","NA","292","legacy","experiment","2029200","even","legacy","38456","NA","NA","NA","NA","283824","NA","NA","283108","283524","1836","283824","281591","281586","283524","1834","CogMod 2015 Experiment","78","21221","78","yes","1024"
"1","800","150","15","100","100","271","271","white","no","xpyriment","legacy","legacy","0","uniform","1","1","m","0","0","0","0","0","78","NA","NA","78","78","0","78","78","78","78","0","11/29/15 16:59:38","Default description","no","mono","no","18","black","Ok","768","legacy","C:/Dropbox/RUG_private/Master/Cognitive modeling2015/Assignment data collection/subject-2029200.csv","xpyriment","Interactive Ising","3.0.4","0","m","NA","NA","m","250","NA","NA","250","legacy","experiment","2029200","even","legacy","38456","NA","NA","NA","NA","286741","NA","NA","285658","286474","1836","286741","284141","284123","286474","1834","CogMod 2015 Experiment","79","21471","79","yes","1024"
"1","1600","150","15","100","100","271","271","white","no","xpyriment","legacy","legacy","0","uniform","1","1","m","0","0","0","0","0","79","NA","NA","79","79","0","79","79","79","79","0","11/29/15 16:59:38","Default description","no","mono","no","18","black","Ok","768","legacy","C:/Dropbox/RUG_private/Master/Cognitive modeling2015/Assignment data collection/subject-2029200.csv","xpyriment","Interactive Ising","3.0.4","0","m","NA","NA","m","283","NA","NA","283","legacy","experiment","2029200","even","legacy","38456","NA","NA","NA","NA","290491","NA","NA","288574","290191","1836","290491","287057","287043","290191","1834","CogMod 2015 Experiment","80","21754","80","yes","1024"
"1","400","-150","15","100","100","272","272","white","no","xpyriment","legacy","legacy","0","uniform","1","1","z","0","0","0","0","0","80","NA","NA","80","80","0","80","80","80","80","0","11/29/15 16:59:38","Default description","no","mono","no","18","black","Ok","768","legacy","C:/Dropbox/RUG_private/Master/Cognitive modeling2015/Assignment data collection/subject-2029200.csv","xpyriment","Interactive Ising","3.0.4","0","z","NA","NA","z","300","NA","NA","300","legacy","experiment","2029200","even","legacy","38456","NA","NA","NA","NA","293057","NA","NA","292327","292741","1836","293057","290807","290791","292740","1834","CogMod 2015 Experiment","81","22054","81","yes","1024"
"1","1200","-150","15","100","100","272","272","white","no","xpyriment","legacy","legacy","0","uniform","1","1","z","0","0","0","0","0","81","NA","NA","81","81","0","81","81","81","81","0","11/29/15 16:59:38","Default description","no","mono","no","18","black","Ok","768","legacy","C:/Dropbox/RUG_private/Master/Cognitive modeling2015/Assignment data collection/subject-2029200.csv","xpyriment","Interactive Ising","3.0.4","0","z","NA","NA","z","266","NA","NA","266","legacy","experiment","2029200","even","legacy","38456","NA","NA","NA","NA","296407","NA","NA","294907","296124","1836","296407","293393","293377","296124","1834","CogMod 2015 Experiment","82","22320","82","yes","1024"
"1","400","-150","15","100","100","272","272","white","no","xpyriment","legacy","legacy","0","uniform","1","1","z","0","0","0","0","0","82","NA","NA","82","82","0","82","82","82","82","0","11/29/15 16:59:38","Default description","no","mono","no","18","black","Ok","768","legacy","C:/Dropbox/RUG_private/Master/Cognitive modeling2015/Assignment data collection/subject-2029200.csv","xpyriment","Interactive Ising","3.0.4","0","z","NA","NA","z","266","NA","NA","266","legacy","experiment","2029200","even","legacy","38456","NA","NA","NA","NA","299024","NA","NA","298324","298741","1836","299024","296808","296793","298741","1834","CogMod 2015 Experiment","83","22586","83","yes","1024"
"1","800","150","15","100","100","272","272","white","no","xpyriment","legacy","legacy","0","uniform","1","1","m","0","0","0","0","0","83","NA","NA","83","83","0","83","83","83","83","0","11/29/15 16:59:38","Default description","no","mono","no","18","black","Ok","768","legacy","C:/Dropbox/RUG_private/Master/Cognitive modeling2015/Assignment data collection/subject-2029200.csv","xpyriment","Interactive Ising","3.0.4","0","m","NA","NA","m","289","NA","NA","289","legacy","experiment","2029200","even","legacy","38456","NA","NA","NA","NA","301974","NA","NA","300858","301675","1836","301974","299341","299332","301674","1834","CogMod 2015 Experiment","84","22875","84","yes","1024"
"1","1200","-150","15","100","100","271","271","white","no","xpyriment","legacy","legacy","0","uniform","1","1","z","0","0","0","0","0","84","NA","NA","84","84","0","84","84","84","84","0","11/29/15 16:59:38","Default description","no","mono","no","18","black","Ok","768","legacy","C:/Dropbox/RUG_private/Master/Cognitive modeling2015/Assignment data collection/subject-2029200.csv","xpyriment","Interactive Ising","3.0.4","0","z","NA","NA","z","223","NA","NA","223","legacy","experiment","2029200","even","legacy","38456","NA","NA","NA","NA","305257","NA","NA","303808","305025","1836","305258","302291","302277","305024","1834","CogMod 2015 Experiment","85","23098","85","yes","1024"
"1","800","-150","15","100","100","271","271","white","no","xpyriment","legacy","legacy","0","uniform","1","1","z","0","0","0","0","0","85","NA","NA","85","85","0","85","85","85","85","0","11/29/15 16:59:38","Default description","no","mono","no","18","black","Ok","768","legacy","C:/Dropbox/RUG_private/Master/Cognitive modeling2015/Assignment data collection/subject-2029200.csv","xpyriment","Interactive Ising","3.0.4","0","z","NA","NA","z","273","NA","NA","273","legacy","experiment","2029200","even","legacy","38456","NA","NA","NA","NA","308191","NA","NA","307091","307908","1836","308191","305574","305561","307908","1834","CogMod 2015 Experiment","86","23371","86","yes","1024"
"1","400","-150","15","100","100","272","272","white","no","xpyriment","legacy","legacy","0","uniform","1","1","z","0","0","0","0","0","86","NA","NA","86","86","0","86","86","86","86","0","11/29/15 16:59:38","Default description","no","mono","no","18","black","Ok","768","legacy","C:/Dropbox/RUG_private/Master/Cognitive modeling2015/Assignment data collection/subject-2029200.csv","xpyriment","Interactive Ising","3.0.4","0","z","NA","NA","z","302","NA","NA","302","legacy","experiment","2029200","even","legacy","38456","NA","NA","NA","NA","310757","NA","NA","310024","310441","1836","310757","308507","308493","310441","1834","CogMod 2015 Experiment","87","23673","87","yes","1024"
"1","1600","-150","15","100","100","272","272","white","no","xpyriment","legacy","legacy","0","uniform","1","1","z","0","0","0","0","0","87","NA","NA","87","87","0","87","87","87","87","0","11/29/15 16:59:38","Default description","no","mono","no","18","black","Ok","768","legacy","C:/Dropbox/RUG_private/Master/Cognitive modeling2015/Assignment data collection/subject-2029200.csv","xpyriment","Interactive Ising","3.0.4","0","z","NA","NA","z","280","NA","NA","280","legacy","experiment","2029200","even","legacy","38456","NA","NA","NA","NA","314508","NA","NA","312591","314209","1836","314508","311074","311060","314208","1834","CogMod 2015 Experiment","88","23953","88","yes","1024"
"1","800","-150","15","100","100","272","272","white","no","xpyriment","legacy","legacy","0","uniform","1","1","z","0","0","0","0","0","88","NA","NA","88","88","0","88","88","88","88","0","11/29/15 16:59:38","Default description","no","mono","no","18","black","Ok","768","legacy","C:/Dropbox/RUG_private/Master/Cognitive modeling2015/Assignment data collection/subject-2029200.csv","xpyriment","Interactive Ising","3.0.4","0","z","NA","NA","z","271","NA","NA","271","legacy","experiment","2029200","even","legacy","38456","NA","NA","NA","NA","317441","NA","NA","316341","317158","1836","317441","314825","314809","317158","1834","CogMod 2015 Experiment","89","24224","89","yes","1024"
"1","1200","150","15","100","100","272","272","white","no","xpyriment","legacy","legacy","0","uniform","1","1","m","0","0","0","0","0","89","NA","NA","89","89","0","89","89","89","89","0","11/29/15 16:59:38","Default description","no","mono","no","18","black","Ok","768","legacy","C:/Dropbox/RUG_private/Master/Cognitive modeling2015/Assignment data collection/subject-2029200.csv","xpyriment","Interactive Ising","3.0.4","0","m","NA","NA","m","279","NA","NA","279","legacy","experiment","2029200","even","legacy","38456","NA","NA","NA","NA","320774","NA","NA","319275","320491","1836","320774","317758","317745","320491","1834","CogMod 2015 Experiment","90","24503","90","yes","1024"
"1","1200","-150","15","100","100","271","271","white","no","xpyriment","legacy","legacy","0","uniform","1","1","z","0","0","0","0","0","90","NA","NA","90","90","0","90","90","90","90","0","11/29/15 16:59:38","Default description","no","mono","no","18","black","Ok","768","legacy","C:/Dropbox/RUG_private/Master/Cognitive modeling2015/Assignment data collection/subject-2029200.csv","xpyriment","Interactive Ising","3.0.4","0","z","NA","NA","z","227","NA","NA","227","legacy","experiment","2029200","even","legacy","38456","NA","NA","NA","NA","324058","NA","NA","322608","323824","1836","324058","321091","321074","323824","1834","CogMod 2015 Experiment","91","24730","91","yes","1024"
"1","400","150","15","100","100","271","271","white","no","xpyriment","legacy","legacy","0","uniform","1","1","m","0","0","0","0","0","91","NA","NA","91","91","0","91","91","91","91","0","11/29/15 16:59:38","Default description","no","mono","no","18","black","Ok","768","legacy","C:/Dropbox/RUG_private/Master/Cognitive modeling2015/Assignment data collection/subject-2029200.csv","xpyriment","Interactive Ising","3.0.4","0","m","NA","NA","m","278","NA","NA","278","legacy","experiment","2029200","even","legacy","38456","NA","NA","NA","NA","326591","NA","NA","325891","326308","1836","326591","324374","324361","326307","1834","CogMod 2015 Experiment","92","25008","92","yes","1024"
"1","1200","150","15","100","100","271","271","white","no","xpyriment","legacy","legacy","0","uniform","1","1","m","0","0","0","0","0","92","NA","NA","92","92","0","92","92","92","92","0","11/29/15 16:59:38","Default description","no","mono","no","18","black","Ok","768","legacy","C:/Dropbox/RUG_private/Master/Cognitive modeling2015/Assignment data collection/subject-2029200.csv","xpyriment","Interactive Ising","3.0.4","0","m","NA","NA","m","253","NA","NA","253","legacy","experiment","2029200","even","legacy","38456","NA","NA","NA","NA","329907","NA","NA","328424","329641","1836","329907","326907","326895","329641","1834","CogMod 2015 Experiment","93","25261","93","yes","1024"
"1","1600","150","15","100","100","271","271","white","no","xpyriment","legacy","legacy","0","uniform","1","1","m","0","0","0","0","0","93","NA","NA","93","93","0","93","93","93","93","0","11/29/15 16:59:38","Default description","no","mono","no","18","black","Ok","768","legacy","C:/Dropbox/RUG_private/Master/Cognitive modeling2015/Assignment data collection/subject-2029200.csv","xpyriment","Interactive Ising","3.0.4","0","m","NA","NA","m","259","NA","NA","259","legacy","experiment","2029200","even","legacy","38456","NA","NA","NA","NA","333625","NA","NA","331742","333359","1836","333625","330224","330209","333358","1834","CogMod 2015 Experiment","94","25520","94","yes","1024"
"1","400","-150","15","100","100","272","272","white","no","xpyriment","legacy","legacy","0","uniform","1","1","z","0","0","0","0","0","94","NA","NA","94","94","0","94","94","94","94","0","11/29/15 16:59:38","Default description","no","mono","no","18","black","Ok","768","legacy","C:/Dropbox/RUG_private/Master/Cognitive modeling2015/Assignment data collection/subject-2029200.csv","xpyriment","Interactive Ising","3.0.4","0","z","NA","NA","z","332","NA","NA","332","legacy","experiment","2029200","even","legacy","38456","NA","NA","NA","NA","336225","NA","NA","335458","335875","1836","336225","333941","333924","335875","1834","CogMod 2015 Experiment","95","25852","95","yes","1024"
"1","800","150","15","100","100","271","271","white","no","xpyriment","legacy","legacy","0","uniform","1","1","m","0","0","0","0","0","95","NA","NA","95","95","0","95","95","95","95","0","11/29/15 16:59:38","Default description","no","mono","no","18","black","Ok","768","legacy","C:/Dropbox/RUG_private/Master/Cognitive modeling2015/Assignment data collection/subject-2029200.csv","xpyriment","Interactive Ising","3.0.4","0","m","NA","NA","m","234","NA","NA","234","legacy","experiment","2029200","even","legacy","38456","NA","NA","NA","NA","339124","NA","NA","338058","338875","1836","339125","336541","336528","338875","1834","CogMod 2015 Experiment","96","26086","96","yes","1024"
"1","1600","150","15","100","100","271","271","white","no","xpyriment","legacy","legacy","0","uniform","1","1","m","0","0","0","0","0","96","NA","NA","96","96","0","96","96","96","96","0","11/29/15 16:59:38","Default description","no","mono","no","18","black","Ok","768","legacy","C:/Dropbox/RUG_private/Master/Cognitive modeling2015/Assignment data collection/subject-2029200.csv","xpyriment","Interactive Ising","3.0.4","0","m","NA","NA","m","223","NA","NA","223","legacy","experiment","2029200","even","legacy","38456","NA","NA","NA","NA","342808","NA","NA","340958","342575","1836","342808","339442","339428","342574","1834","CogMod 2015 Experiment","97","26309","97","yes","1024"
"1","1600","-150","15","100","100","270","270","white","no","xpyriment","legacy","legacy","0","uniform","1","1","z","0","0","0","0","0","97","NA","NA","97","97","0","97","97","97","97","0","11/29/15 16:59:38","Default description","no","mono","no","18","black","Ok","768","legacy","C:/Dropbox/RUG_private/Master/Cognitive modeling2015/Assignment data collection/subject-2029200.csv","xpyriment","Interactive Ising","3.0.4","0","z","NA","NA","z","238","NA","NA","238","legacy","experiment","2029200","even","legacy","38456","NA","NA","NA","NA","346507","NA","NA","344641","346258","1836","346507","343124","343112","346258","1834","CogMod 2015 Experiment","98","26547","98","yes","1024"
"1","1200","150","15","100","100","270","270","white","no","xpyriment","legacy","legacy","0","uniform","1","1","m","0","0","0","0","0","98","NA","NA","98","98","0","98","98","98","98","0","11/29/15 16:59:38","Default description","no","mono","no","18","black","Ok","768","legacy","C:/Dropbox/RUG_private/Master/Cognitive modeling2015/Assignment data collection/subject-2029200.csv","xpyriment","Interactive Ising","3.0.4","0","m","NA","NA","m","261","NA","NA","261","legacy","experiment","2029200","even","legacy","38456","NA","NA","NA","NA","349825","NA","NA","348341","349559","1836","349825","346824","346812","349558","1834","CogMod 2015 Experiment","99","26808","99","yes","1024"
"1","1600","-150","15","100","100","270","270","white","no","xpyriment","legacy","legacy","0","uniform","1","1","z","0","0","0","0","0","99","NA","NA","99","99","0","99","99","99","99","0","11/29/15 16:59:38","Default description","no","mono","no","18","black","Ok","768","legacy","C:/Dropbox/RUG_private/Master/Cognitive modeling2015/Assignment data collection/subject-2029200.csv","xpyriment","Interactive Ising","3.0.4","0","z","NA","NA","z","226","NA","NA","226","legacy","experiment","2029200","even","legacy","38456","NA","NA","NA","NA","353508","NA","NA","351659","353275","1836","353508","350142","350127","353275","1834","CogMod 2015 Experiment","100","27034","100","yes","1024"
"1","400","150","15","100","100","270","270","white","no","xpyriment","legacy","legacy","0","uniform","1","1","m","0","0","0","0","0","100","NA","NA","100","100","0","100","100","100","100","0","11/29/15 16:59:38","Default description","no","mono","no","18","black","Ok","768","legacy","C:/Dropbox/RUG_private/Master/Cognitive modeling2015/Assignment data collection/subject-2029200.csv","xpyriment","Interactive Ising","3.0.4","0","m","NA","NA","m","305","NA","NA","305","legacy","experiment","2029200","even","legacy","38456","NA","NA","NA","NA","356075","NA","NA","355342","355758","1836","356075","353825","353818","355758","1834","CogMod 2015 Experiment","101","27339","101","yes","1024"
"1","400","-150","15","100","100","270","270","white","no","xpyriment","legacy","legacy","0","uniform","1","1","z","0","0","0","0","0","101","NA","NA","101","101","0","101","101","101","101","0","11/29/15 16:59:38","Default description","no","mono","no","18","black","Ok","768","legacy","C:/Dropbox/RUG_private/Master/Cognitive modeling2015/Assignment data collection/subject-2029200.csv","xpyriment","Interactive Ising","3.0.4","0","z","NA","NA","z","242","NA","NA","242","legacy","experiment","2029200","even","legacy","38456","NA","NA","NA","NA","358574","NA","NA","357908","358325","1836","358575","356391","356377","358325","1834","CogMod 2015 Experiment","102","27581","102","yes","1024"
"1","1600","150","15","100","100","270","270","white","no","xpyriment","legacy","legacy","0","uniform","1","1","m","0","0","0","0","0","102","NA","NA","102","102","0","102","102","102","102","0","11/29/15 16:59:38","Default description","no","mono","no","18","black","Ok","768","legacy","C:/Dropbox/RUG_private/Master/Cognitive modeling2015/Assignment data collection/subject-2029200.csv","xpyriment","Interactive Ising","3.0.4","0","m","NA","NA","m","280","NA","NA","280","legacy","experiment","2029200","even","legacy","38456","NA","NA","NA","NA","362324","NA","NA","360408","362025","1836","362324","358891","358885","362024","1834","CogMod 2015 Experiment","103","27861","103","yes","1024"
"1","800","150","15","100","100","270","270","white","no","xpyriment","legacy","legacy","0","uniform","1","1","m","0","0","0","0","0","103","NA","NA","103","103","0","103","103","103","103","0","11/29/15 16:59:38","Default description","no","mono","no","18","black","Ok","768","legacy","C:/Dropbox/RUG_private/Master/Cognitive modeling2015/Assignment data collection/subject-2029200.csv","xpyriment","Interactive Ising","3.0.4","0","m","NA","NA","m","309","NA","NA","309","legacy","experiment","2029200","even","legacy","38456","NA","NA","NA","NA","365291","NA","NA","364158","364974","1836","365291","362641","362629","364974","1834","CogMod 2015 Experiment","104","28170","104","yes","1024"
"1","800","-150","15","100","100","270","270","white","no","xpyriment","legacy","legacy","0","uniform","1","1","z","0","0","0","0","0","104","NA","NA","104","104","0","104","104","104","104","0","11/29/15 16:59:38","Default description","no","mono","no","18","black","Ok","768","legacy","C:/Dropbox/RUG_private/Master/Cognitive modeling2015/Assignment data collection/subject-2029200.csv","xpyriment","Interactive Ising","3.0.4","0","z","NA","NA","z","282","NA","NA","282","legacy","experiment","2029200","even","legacy","38456","NA","NA","NA","NA","368258","NA","NA","367142","367959","1836","368259","365627","365618","367959","1834","CogMod 2015 Experiment","105","28452","105","yes","1024"
"1","400","150","15","100","100","271","271","white","no","xpyriment","legacy","legacy","0","uniform","1","1","m","0","0","0","0","0","105","NA","NA","105","105","0","105","105","105","105","0","11/29/15 16:59:38","Default description","no","mono","no","18","black","Ok","768","legacy","C:/Dropbox/RUG_private/Master/Cognitive modeling2015/Assignment data collection/subject-2029200.csv","xpyriment","Interactive Ising","3.0.4","0","m","NA","NA","m","307","NA","NA","307","legacy","experiment","2029200","even","legacy","38456","NA","NA","NA","NA","370892","NA","NA","370158","370575","1836","370892","368642","368638","370575","1834","CogMod 2015 Experiment","106","28759","106","yes","1024"
"1","1600","150","15","100","100","271","271","white","no","xpyriment","legacy","legacy","0","uniform","1","1","m","0","0","0","0","0","106","NA","NA","106","106","0","106","106","106","106","0","11/29/15 16:59:38","Default description","no","mono","no","18","black","Ok","768","legacy","C:/Dropbox/RUG_private/Master/Cognitive modeling2015/Assignment data collection/subject-2029200.csv","xpyriment","Interactive Ising","3.0.4","0","m","NA","NA","m","287","NA","NA","287","legacy","experiment","2029200","even","legacy","38456","NA","NA","NA","NA","374641","NA","NA","372725","374342","1836","374641","371208","371195","374342","1834","CogMod 2015 Experiment","107","29046","107","yes","1024"
"1","800","-150","15","100","100","271","271","white","no","xpyriment","legacy","legacy","0","uniform","1","1","z","0","0","0","0","0","107","NA","NA","107","107","0","107","107","107","107","0","11/29/15 16:59:38","Default description","no","mono","no","18","black","Ok","768","legacy","C:/Dropbox/RUG_private/Master/Cognitive modeling2015/Assignment data collection/subject-2029200.csv","xpyriment","Interactive Ising","3.0.4","0","z","NA","NA","z","274","NA","NA","274","legacy","experiment","2029200","even","legacy","38456","NA","NA","NA","NA","377575","NA","NA","376475","377292","1836","377575","374958","374945","377291","1834","CogMod 2015 Experiment","108","29320","108","yes","1024"
"1","800","-150","15","100","100","271","271","white","no","xpyriment","legacy","legacy","0","uniform","1","1","z","0","0","0","0","0","108","NA","NA","108","108","0","108","108","108","108","0","11/29/15 16:59:38","Default description","no","mono","no","18","black","Ok","768","legacy","C:/Dropbox/RUG_private/Master/Cognitive modeling2015/Assignment data collection/subject-2029200.csv","xpyriment","Interactive Ising","3.0.4","0","z","NA","NA","z","281","NA","NA","281","legacy","experiment","2029200","even","legacy","38456","NA","NA","NA","NA","380524","NA","NA","379408","380225","1836","380524","377891","377878","380225","1834","CogMod 2015 Experiment","109","29601","109","yes","1024"
"1","800","150","15","100","100","271","271","white","no","xpyriment","legacy","legacy","0","uniform","1","1","m","0","0","0","0","0","109","NA","NA","109","109","0","109","109","109","109","0","11/29/15 16:59:38","Default description","no","mono","no","18","black","Ok","768","legacy","C:/Dropbox/RUG_private/Master/Cognitive modeling2015/Assignment data collection/subject-2029200.csv","xpyriment","Interactive Ising","3.0.4","0","m","NA","NA","m","238","NA","NA","238","legacy","experiment","2029200","even","legacy","38456","NA","NA","NA","NA","383424","NA","NA","382358","383175","1836","383424","380841","380825","383174","1834","CogMod 2015 Experiment","110","29839","110","yes","1024"
"1","400","-150","15","100","100","271","271","white","no","xpyriment","legacy","legacy","0","uniform","1","1","z","0","0","0","0","0","110","NA","NA","110","110","0","110","110","110","110","0","11/29/15 16:59:38","Default description","no","mono","no","18","black","Ok","768","legacy","C:/Dropbox/RUG_private/Master/Cognitive modeling2015/Assignment data collection/subject-2029200.csv","xpyriment","Interactive Ising","3.0.4","0","z","NA","NA","z","292","NA","NA","292","legacy","experiment","2029200","even","legacy","38456","NA","NA","NA","NA","385992","NA","NA","385275","385692","1836","385992","383758","383743","385692","1834","CogMod 2015 Experiment","111","30131","111","yes","1024"
"1","1600","150","15","100","100","271","271","white","no","xpyriment","legacy","legacy","0","uniform","1","1","m","0","0","0","0","0","111","NA","NA","111","111","0","111","111","111","111","0","11/29/15 16:59:38","Default description","no","mono","no","18","black","Ok","768","legacy","C:/Dropbox/RUG_private/Master/Cognitive modeling2015/Assignment data collection/subject-2029200.csv","xpyriment","Interactive Ising","3.0.4","0","m","NA","NA","m","251","NA","NA","251","legacy","experiment","2029200","even","legacy","38456","NA","NA","NA","NA","389708","NA","NA","387825","389442","1836","389708","386308","386293","389442","1834","CogMod 2015 Experiment","112","30382","112","yes","1024"
"1","1600","150","15","100","100","271","271","white","no","xpyriment","legacy","legacy","0","uniform","1","1","m","0","0","0","0","0","112","NA","NA","112","112","0","112","112","112","112","0","11/29/15 16:59:38","Default description","no","mono","no","18","black","Ok","768","legacy","C:/Dropbox/RUG_private/Master/Cognitive modeling2015/Assignment data collection/subject-2029200.csv","xpyriment","Interactive Ising","3.0.4","0","m","NA","NA","m","253","NA","NA","253","legacy","experiment","2029200","even","legacy","38456","NA","NA","NA","NA","393425","NA","NA","391542","393159","1836","393425","390025","390011","393158","1834","CogMod 2015 Experiment","113","30635","113","yes","1024"
"1","800","150","15","100","100","270","270","white","no","xpyriment","legacy","legacy","0","uniform","1","1","m","0","0","0","0","0","113","NA","NA","113","113","0","113","113","113","113","0","11/29/15 16:59:38","Default description","no","mono","no","18","black","Ok","768","legacy","C:/Dropbox/RUG_private/Master/Cognitive modeling2015/Assignment data collection/subject-2029200.csv","xpyriment","Interactive Ising","3.0.4","0","m","NA","NA","m","258","NA","NA","258","legacy","experiment","2029200","even","legacy","38456","NA","NA","NA","NA","396341","NA","NA","395258","396075","1836","396341","393741","393727","396075","1834","CogMod 2015 Experiment","114","30893","114","yes","1024"
"1","800","150","15","100","100","271","271","white","no","xpyriment","legacy","legacy","0","uniform","1","1","m","0","0","0","0","0","114","NA","NA","114","114","0","114","114","114","114","0","11/29/15 16:59:38","Default description","no","mono","no","18","black","Ok","768","legacy","C:/Dropbox/RUG_private/Master/Cognitive modeling2015/Assignment data collection/subject-2029200.csv","xpyriment","Interactive Ising","3.0.4","0","m","NA","NA","m","294","NA","NA","294","legacy","experiment","2029200","even","legacy","38456","NA","NA","NA","NA","399291","NA","NA","398175","398992","1836","399291","396658","396643","398991","1834","CogMod 2015 Experiment","115","31187","115","yes","1024"
"1","800","-150","15","100","100","271","271","white","no","xpyriment","legacy","legacy","0","uniform","1","1","z","0","0","0","0","0","115","NA","NA","115","115","0","115","115","115","115","0","11/29/15 16:59:38","Default description","no","mono","no","18","black","Ok","768","legacy","C:/Dropbox/RUG_private/Master/Cognitive modeling2015/Assignment data collection/subject-2029200.csv","xpyriment","Interactive Ising","3.0.4","0","z","NA","NA","z","270","NA","NA","270","legacy","experiment","2029200","even","legacy","38456","NA","NA","NA","NA","402225","NA","NA","401125","401942","1836","402225","399608","399595","401942","1834","CogMod 2015 Experiment","116","31457","116","yes","1024"
"1","1200","-150","15","100","100","271","271","white","no","xpyriment","legacy","legacy","0","uniform","1","1","z","0","0","0","0","0","116","NA","NA","116","116","0","116","116","116","116","0","11/29/15 16:59:38","Default description","no","mono","no","18","black","Ok","768","legacy","C:/Dropbox/RUG_private/Master/Cognitive modeling2015/Assignment data collection/subject-2029200.csv","xpyriment","Interactive Ising","3.0.4","0","z","NA","NA","z","275","NA","NA","275","legacy","experiment","2029200","even","legacy","38456","NA","NA","NA","NA","405558","NA","NA","404059","405276","1836","405559","402542","402533","405275","1834","CogMod 2015 Experiment","117","31732","117","yes","1024"
"1","800","150","15","100","100","271","271","white","no","xpyriment","legacy","legacy","0","uniform","1","1","m","0","0","0","0","0","117","NA","NA","117","117","0","117","117","117","117","0","11/29/15 16:59:38","Default description","no","mono","no","18","black","Ok","768","legacy","C:/Dropbox/RUG_private/Master/Cognitive modeling2015/Assignment data collection/subject-2029200.csv","xpyriment","Interactive Ising","3.0.4","0","m","NA","NA","m","261","NA","NA","261","legacy","experiment","2029200","even","legacy","38456","NA","NA","NA","NA","408475","NA","NA","407392","408209","1836","408475","405875","405860","408209","1834","CogMod 2015 Experiment","118","31993","118","yes","1024"
"1","1600","-150","15","100","100","271","271","white","no","xpyriment","legacy","legacy","0","uniform","1","1","z","0","0","0","0","0","118","NA","NA","118","118","0","118","118","118","118","0","11/29/15 16:59:38","Default description","no","mono","no","18","black","Ok","768","legacy","C:/Dropbox/RUG_private/Master/Cognitive modeling2015/Assignment data collection/subject-2029200.csv","xpyriment","Interactive Ising","3.0.4","0","z","NA","NA","z","262","NA","NA","262","legacy","experiment","2029200","even","legacy","38456","NA","NA","NA","NA","412191","NA","NA","410308","411925","1836","412192","408792","408776","411925","1834","CogMod 2015 Experiment","119","32255","119","yes","1024"
"1","400","150","15","100","100","271","271","white","no","xpyriment","legacy","legacy","0","uniform","1","1","m","0","0","0","0","0","119","NA","NA","119","119","0","119","119","119","119","0","11/29/15 16:59:38","Default description","no","mono","no","18","black","Ok","768","legacy","C:/Dropbox/RUG_private/Master/Cognitive modeling2015/Assignment data collection/subject-2029200.csv","xpyriment","Interactive Ising","3.0.4","0","m","NA","NA","m","336","NA","NA","336","legacy","experiment","2029200","even","legacy","38456","NA","NA","NA","NA","414791","NA","NA","414025","414442","1836","414791","412509","412495","414441","1834","CogMod 2015 Experiment","120","32591","120","yes","1024"
"2","400","-150","4","100","100","261","261","white","no","xpyriment","legacy","legacy","0","uniform","1","1","z","0","0","0","0","0","120","0","NA","120","120","0","120","120","120","120","0","11/29/15 16:59:38","Default description","no","mono","no","18","black","Ok","768","legacy","C:/Dropbox/RUG_private/Master/Cognitive modeling2015/Assignment data collection/subject-2029200.csv","xpyriment","Interactive Ising","3.0.4","0","z","space","NA","z","261","17823","NA","261","legacy","experiment","2029200","even","legacy","38456","432964","NA","NA","NA","435475","415141","NA","434792","435209","1836","435475","433275","433260","435208","1834","CogMod 2015 Experiment","1","261","1","yes","1024"
"2","1200","150","16","100","100","255","255","white","no","xpyriment","legacy","legacy","0","uniform","1","1","m","0","0","0","0","0","121","0","NA","121","121","0","121","121","121","121","0","11/29/15 16:59:38","Default description","no","mono","no","18","black","Ok","768","legacy","C:/Dropbox/RUG_private/Master/Cognitive modeling2015/Assignment data collection/subject-2029200.csv","xpyriment","Interactive Ising","3.0.4","0","m","space","NA","m","249","17823","NA","249","legacy","experiment","2029200","even","legacy","38456","432964","NA","NA","NA","438792","415141","NA","437309","438526","1836","438792","435791","435784","438526","1834","CogMod 2015 Experiment","2","510","2","yes","1024"
"2","1600","-150","32","100","100","244","244","white","no","xpyriment","legacy","legacy","0","uniform","1","1","z","0","0","0","0","0","122","0","NA","122","122","0","122","122","122","122","0","11/29/15 16:59:38","Default description","no","mono","no","18","black","Ok","768","legacy","C:/Dropbox/RUG_private/Master/Cognitive modeling2015/Assignment data collection/subject-2029200.csv","xpyriment","Interactive Ising","3.0.4","0","z","space","NA","z","224","17823","NA","224","legacy","experiment","2029200","even","legacy","38456","432964","NA","NA","NA","442475","415141","NA","440626","442243","1836","442476","439109","439094","442242","1834","CogMod 2015 Experiment","3","734","3","yes","1024"
"2","1200","150","16","100","100","253","253","white","no","xpyriment","legacy","legacy","0","uniform","1","1","m","0","0","0","0","0","123","0","NA","123","123","0","123","123","123","123","0","11/29/15 16:59:38","Default description","no","mono","no","18","black","Ok","768","legacy","C:/Dropbox/RUG_private/Master/Cognitive modeling2015/Assignment data collection/subject-2029200.csv","xpyriment","Interactive Ising","3.0.4","0","m","space","NA","m","278","17823","NA","278","legacy","experiment","2029200","even","legacy","38456","432964","NA","NA","NA","445809","415141","NA","444309","445526","1836","445809","442792","442787","445525","1834","CogMod 2015 Experiment","4","1012","4","yes","1024"
"2","1600","150","32","100","100","253","253","white","no","xpyriment","legacy","legacy","0","uniform","1","1","m","0","0","0","0","0","124","0","NA","124","124","0","124","124","124","124","0","11/29/15 16:59:38","Default description","no","mono","no","18","black","Ok","768","legacy","C:/Dropbox/RUG_private/Master/Cognitive modeling2015/Assignment data collection/subject-2029200.csv","xpyriment","Interactive Ising","3.0.4","0","m","space","NA","m","254","17823","NA","254","legacy","experiment","2029200","even","legacy","38456","432964","NA","NA","NA","449525","415141","NA","447642","449259","1836","449525","446125","446113","449258","1834","CogMod 2015 Experiment","5","1266","5","yes","1024"
"2","1600","-150","32","100","100","261","261","white","no","xpyriment","legacy","legacy","0","uniform","1","1","z","0","0","0","0","0","125","0","NA","125","125","0","125","125","125","125","0","11/29/15 16:59:38","Default description","no","mono","no","18","black","Ok","768","legacy","C:/Dropbox/RUG_private/Master/Cognitive modeling2015/Assignment data collection/subject-2029200.csv","xpyriment","Interactive Ising","3.0.4","0","z","space","NA","z","304","17823","NA","304","legacy","experiment","2029200","even","legacy","38456","432964","NA","NA","NA","453308","415141","NA","451375","452992","1836","453308","449862","449851","452992","1834","CogMod 2015 Experiment","6","1570","6","yes","1024"
"2","1600","-150","32","100","100","257","257","white","no","xpyriment","legacy","legacy","0","uniform","1","1","z","0","0","0","0","0","126","0","NA","126","126","0","126","126","126","126","0","11/29/15 16:59:38","Default description","no","mono","no","18","black","Ok","768","legacy","C:/Dropbox/RUG_private/Master/Cognitive modeling2015/Assignment data collection/subject-2029200.csv","xpyriment","Interactive Ising","3.0.4","0","z","space","NA","z","232","17823","NA","232","legacy","experiment","2029200","even","legacy","38456","432964","NA","NA","NA","457009","415141","NA","455143","456760","1836","457009","453625","453617","456759","1834","CogMod 2015 Experiment","7","1802","7","yes","1024"
"2","1600","-150","32","100","100","254","254","white","no","xpyriment","legacy","legacy","0","uniform","1","1","z","0","0","0","0","0","127","0","NA","127","127","0","127","127","127","127","0","11/29/15 16:59:38","Default description","no","mono","no","18","black","Ok","768","legacy","C:/Dropbox/RUG_private/Master/Cognitive modeling2015/Assignment data collection/subject-2029200.csv","xpyriment","Interactive Ising","3.0.4","0","z","space","NA","z","236","17823","NA","236","legacy","experiment","2029200","even","legacy","38456","432964","NA","NA","NA","460709","415141","NA","458842","460459","1836","460709","457326","457311","460459","1834","CogMod 2015 Experiment","8","2038","8","yes","1024"
"2","1200","-150","16","100","100","256","256","white","no","xpyriment","legacy","legacy","0","uniform","1","1","z","0","0","0","0","0","128","0","NA","128","128","0","128","128","128","128","0","11/29/15 16:59:38","Default description","no","mono","no","18","black","Ok","768","legacy","C:/Dropbox/RUG_private/Master/Cognitive modeling2015/Assignment data collection/subject-2029200.csv","xpyriment","Interactive Ising","3.0.4","0","z","space","NA","z","269","17823","NA","269","legacy","experiment","2029200","even","legacy","38456","432964","NA","NA","NA","464042","415141","NA","462542","463759","1836","464042","461025","461013","463759","1834","CogMod 2015 Experiment","9","2307","9","yes","1024"
"2","1600","150","32","100","100","254","254","white","no","xpyriment","legacy","legacy","0","uniform","1","1","m","0","0","0","0","0","129","0","NA","129","129","0","129","129","129","129","0","11/29/15 16:59:38","Default description","no","mono","no","18","black","Ok","768","legacy","C:/Dropbox/RUG_private/Master/Cognitive modeling2015/Assignment data collection/subject-2029200.csv","xpyriment","Interactive Ising","3.0.4","0","m","space","NA","m","236","17823","NA","236","legacy","experiment","2029200","even","legacy","38456","432964","NA","NA","NA","467742","415141","NA","465876","467492","1836","467742","464359","464355","467492","1834","CogMod 2015 Experiment","10","2543","10","yes","1024"
"2","1600","150","32","100","100","254","254","white","no","xpyriment","legacy","legacy","0","uniform","1","1","m","0","0","0","0","0","130","0","NA","130","130","0","130","130","130","130","0","11/29/15 16:59:38","Default description","no","mono","no","18","black","Ok","768","legacy","C:/Dropbox/RUG_private/Master/Cognitive modeling2015/Assignment data collection/subject-2029200.csv","xpyriment","Interactive Ising","3.0.4","0","m","space","NA","m","258","17823","NA","258","legacy","experiment","2029200","even","legacy","38456","432964","NA","NA","NA","471458","415141","NA","469575","471192","1836","471458","468058","468047","471192","1834","CogMod 2015 Experiment","11","2801","11","yes","1024"
"2","1600","-150","32","100","100","254","254","white","no","xpyriment","legacy","legacy","0","uniform","1","1","z","0","0","0","0","0","131","0","NA","131","131","0","131","131","131","131","0","11/29/15 16:59:38","Default description","no","mono","no","18","black","Ok","768","legacy","C:/Dropbox/RUG_private/Master/Cognitive modeling2015/Assignment data collection/subject-2029200.csv","xpyriment","Interactive Ising","3.0.4","0","z","space","NA","z","251","17823","NA","251","legacy","experiment","2029200","even","legacy","38456","432964","NA","NA","NA","475176","415141","NA","473293","474910","1836","475176","471776","471764","474909","1834","CogMod 2015 Experiment","12","3052","12","yes","1024"
"2","800","150","8","100","100","255","255","white","no","xpyriment","legacy","legacy","0","uniform","1","1","m","0","0","0","0","0","132","0","NA","132","132","0","132","132","132","132","0","11/29/15 16:59:38","Default description","no","mono","no","18","black","Ok","768","legacy","C:/Dropbox/RUG_private/Master/Cognitive modeling2015/Assignment data collection/subject-2029200.csv","xpyriment","Interactive Ising","3.0.4","0","m","space","NA","m","264","17823","NA","264","legacy","experiment","2029200","even","legacy","38456","432964","NA","NA","NA","478109","415141","NA","477009","477826","1836","478109","475492","475484","477826","1834","CogMod 2015 Experiment","13","3316","13","yes","1024"
"2","1600","150","32","100","100","256","256","white","no","xpyriment","legacy","legacy","0","uniform","1","1","m","0","0","0","0","0","133","0","NA","133","133","0","133","133","133","133","0","11/29/15 16:59:38","Default description","no","mono","no","18","black","Ok","768","legacy","C:/Dropbox/RUG_private/Master/Cognitive modeling2015/Assignment data collection/subject-2029200.csv","xpyriment","Interactive Ising","3.0.4","0","m","space","NA","m","280","17823","NA","280","legacy","experiment","2029200","even","legacy","38456","432964","NA","NA","NA","481842","415141","NA","479942","481559","1836","481842","478426","478414","481559","1834","CogMod 2015 Experiment","14","3596","14","yes","1024"
"2","1600","150","32","100","100","258","258","white","no","xpyriment","legacy","legacy","0","uniform","1","1","m","0","0","0","0","0","134","0","NA","134","134","0","134","134","134","134","0","11/29/15 16:59:38","Default description","no","mono","no","18","black","Ok","768","legacy","C:/Dropbox/RUG_private/Master/Cognitive modeling2015/Assignment data collection/subject-2029200.csv","xpyriment","Interactive Ising","3.0.4","0","m","space","NA","m","277","17823","NA","277","legacy","experiment","2029200","even","legacy","38456","432964","NA","NA","NA","485575","415141","NA","483676","485292","1836","485575","482159","482143","485292","1834","CogMod 2015 Experiment","15","3873","15","yes","1024"
"2","1200","150","16","100","100","258","258","white","no","xpyriment","legacy","legacy","0","uniform","1","1","m","0","0","0","0","0","135","0","NA","135","135","0","135","135","135","135","0","11/29/15 16:59:38","Default description","no","mono","no","18","black","Ok","768","legacy","C:/Dropbox/RUG_private/Master/Cognitive modeling2015/Assignment data collection/subject-2029200.csv","xpyriment","Interactive Ising","3.0.4","0","m","space","NA","m","264","17823","NA","264","legacy","experiment","2029200","even","legacy","38456","432964","NA","NA","NA","488908","415141","NA","487409","488626","1836","488908","485892","485876","488625","1834","CogMod 2015 Experiment","16","4137","16","yes","1024"
"2","1600","-150","32","100","100","258","258","white","no","xpyriment","legacy","legacy","0","uniform","1","1","z","0","0","0","0","0","136","0","NA","136","136","0","136","136","136","136","0","11/29/15 16:59:38","Default description","no","mono","no","18","black","Ok","768","legacy","C:/Dropbox/RUG_private/Master/Cognitive modeling2015/Assignment data collection/subject-2029200.csv","xpyriment","Interactive Ising","3.0.4","0","z","space","NA","z","255","17823","NA","255","legacy","experiment","2029200","even","legacy","38456","432964","NA","NA","NA","492626","415141","NA","490743","492360","1836","492626","489226","489216","492359","1834","CogMod 2015 Experiment","17","4392","17","yes","1024"
"2","1200","-150","16","100","100","259","259","white","no","xpyriment","legacy","legacy","0","uniform","1","1","z","0","0","0","0","0","137","0","NA","137","137","0","137","137","137","137","0","11/29/15 16:59:38","Default description","no","mono","no","18","black","Ok","768","legacy","C:/Dropbox/RUG_private/Master/Cognitive modeling2015/Assignment data collection/subject-2029200.csv","xpyriment","Interactive Ising","3.0.4","0","z","space","NA","z","271","17823","NA","271","legacy","experiment","2029200","even","legacy","38456","432964","NA","NA","NA","495959","415141","NA","494459","495676","1836","495959","492943","492930","495676","1834","CogMod 2015 Experiment","18","4663","18","yes","1024"
"2","400","150","4","100","100","264","264","white","no","xpyriment","legacy","legacy","0","uniform","1","1","m","0","0","0","0","0","138","0","NA","138","138","0","138","138","138","138","0","11/29/15 16:59:38","Default description","no","mono","no","18","black","Ok","768","legacy","C:/Dropbox/RUG_private/Master/Cognitive modeling2015/Assignment data collection/subject-2029200.csv","xpyriment","Interactive Ising","3.0.4","0","m","space","NA","m","368","17823","NA","368","legacy","experiment","2029200","even","legacy","38456","432964","NA","NA","NA","498592","415141","NA","497792","498209","1836","498592","496276","496260","498209","1834","CogMod 2015 Experiment","19","5031","19","yes","1024"
"2","1200","-150","16","100","100","265","265","white","no","xpyriment","legacy","legacy","0","uniform","1","1","z","0","0","0","0","0","139","0","NA","139","139","0","139","139","139","139","0","11/29/15 16:59:38","Default description","no","mono","no","18","black","Ok","768","legacy","C:/Dropbox/RUG_private/Master/Cognitive modeling2015/Assignment data collection/subject-2029200.csv","xpyriment","Interactive Ising","3.0.4","0","z","space","NA","z","275","17823","NA","275","legacy","experiment","2029200","even","legacy","38456","432964","NA","NA","NA","501925","415141","NA","500426","501643","1836","501926","498909","498903","501642","1834","CogMod 2015 Experiment","20","5306","20","yes","1024"
"2","1600","150","32","100","100","265","265","white","no","xpyriment","legacy","legacy","0","uniform","1","1","m","0","0","0","0","0","140","0","NA","140","140","0","140","140","140","140","0","11/29/15 16:59:38","Default description","no","mono","no","18","black","Ok","768","legacy","C:/Dropbox/RUG_private/Master/Cognitive modeling2015/Assignment data collection/subject-2029200.csv","xpyriment","Interactive Ising","3.0.4","0","m","space","NA","m","276","17823","NA","276","legacy","experiment","2029200","even","legacy","38456","432964","NA","NA","NA","505659","415141","NA","503759","505376","1836","505659","502242","502230","505375","1834","CogMod 2015 Experiment","21","5582","21","yes","1024"
"2","1600","-150","32","100","100","265","265","white","no","xpyriment","legacy","legacy","0","uniform","1","1","z","0","0","0","0","0","141","0","NA","141","141","0","141","141","141","141","0","11/29/15 16:59:38","Default description","no","mono","no","18","black","Ok","768","legacy","C:/Dropbox/RUG_private/Master/Cognitive modeling2015/Assignment data collection/subject-2029200.csv","xpyriment","Interactive Ising","3.0.4","0","z","space","NA","z","257","17823","NA","257","legacy","experiment","2029200","even","legacy","38456","432964","NA","NA","NA","509376","415141","NA","507493","509110","1836","509376","505975","505963","509110","1834","CogMod 2015 Experiment","22","5839","22","yes","1024"
"2","1600","150","32","100","100","263","263","white","no","xpyriment","legacy","legacy","0","uniform","1","1","m","0","0","0","0","0","142","0","NA","142","142","0","142","142","142","142","0","11/29/15 16:59:38","Default description","no","mono","no","18","black","Ok","768","legacy","C:/Dropbox/RUG_private/Master/Cognitive modeling2015/Assignment data collection/subject-2029200.csv","xpyriment","Interactive Ising","3.0.4","0","m","space","NA","m","232","17823","NA","232","legacy","experiment","2029200","even","legacy","38456","432964","NA","NA","NA","513076","415141","NA","511209","512826","1836","513076","509693","509680","512826","1834","CogMod 2015 Experiment","23","6071","23","yes","1024"
