"Block","Foreperiod","Location","NumRep","acc","accuracy","average_response_time","avg_rt","background","bidi","canvas_backend","clock_backend","color_backend","compensation","coordinates","correct","correct_GetResponse","correct_response","count_Block_1","count_Block_2","count_Block_3","count_Block_4","count_Block_5","count_ClearScreen","count_Feedback","count_Feedback_Final","count_Fixation","count_GetResponse","count_Instructions1","count_LogData","count_PreTrialWait","count_SingleTrial","count_Stimulus","count_experiment","datetime","description","font_bold","font_family","font_italic","font_size","foreground","form_response","height","keyboard_backend","logfile","mouse_backend","opensesame_codename","opensesame_version","repeat_cycle","response","response_Feedback","response_Feedback_Final","response_GetResponse","response_time","response_time_Feedback","response_time_Feedback_Final","response_time_GetResponse","sampler_backend","start","subject_nr","subject_parity","synth_backend","time_Block_1","time_Block_2","time_Block_3","time_Block_4","time_Block_5","time_ClearScreen","time_Feedback","time_Feedback_Final","time_Fixation","time_GetResponse","time_Instructions1","time_LogData","time_PreTrialWait","time_SingleTrial","time_Stimulus","time_experiment","title","total_correct","total_response_time","total_responses","uniform_coordinates","width"
"1","1200","-150","15","100","100","699","699","white","no","xpyriment","legacy","legacy","0","uniform","1","1","z","0","0","0","0","0","0","NA","NA","0","0","0","0","0","0","0","0","Fri 27 Nov 2015 19:52:26 CET","Default description","no","mono","no","18","black","Ok","768","legacy","/home/han/Desktop/subject-1971190.csv","xpyriment","Interactive Ising","3.0.2","0","z","NA","NA","z","699","NA","NA","699","legacy","experiment","1971190","even","legacy","42229","NA","NA","NA","NA","45918","NA","NA","44011","45214","1620","45918","42509","42506","45213","1620","CogMod 2015 Experiment","1","699","1","yes","1024"
"1","1600","-150","15","100","100","539","539","white","no","xpyriment","legacy","legacy","0","uniform","1","1","z","0","0","0","0","0","1","NA","NA","1","1","0","1","1","1","1","0","Fri 27 Nov 2015 19:52:26 CET","Default description","no","mono","no","18","black","Ok","768","legacy","/home/han/Desktop/subject-1971190.csv","xpyriment","Interactive Ising","3.0.2","0","z","NA","NA","z","379","NA","NA","379","legacy","experiment","1971190","even","legacy","42229","NA","NA","NA","NA","49697","NA","NA","47710","49313","1620","49697","46207","46203","49312","1620","CogMod 2015 Experiment","2","1078","2","yes","1024"
"1","1200","150","15","100","100","487","487","white","no","xpyriment","legacy","legacy","0","uniform","1","1","m","0","0","0","0","0","2","NA","NA","2","2","0","2","2","2","2","0","Fri 27 Nov 2015 19:52:26 CET","Default description","no","mono","no","18","black","Ok","768","legacy","/home/han/Desktop/subject-1971190.csv","xpyriment","Interactive Ising","3.0.2","0","m","NA","NA","m","384","NA","NA","384","legacy","experiment","1971190","even","legacy","42229","NA","NA","NA","NA","53078","NA","NA","51486","52692","1620","53078","49983","49979","52692","1620","CogMod 2015 Experiment","3","1462","3","yes","1024"
"1","1600","-150","15","100","100","452","452","white","no","xpyriment","legacy","legacy","0","uniform","1","1","z","0","0","0","0","0","3","NA","NA","3","3","0","3","3","3","3","0","Fri 27 Nov 2015 19:52:26 CET","Default description","no","mono","no","18","black","Ok","768","legacy","/home/han/Desktop/subject-1971190.csv","xpyriment","Interactive Ising","3.0.2","0","z","NA","NA","z","349","NA","NA","349","legacy","experiment","1971190","even","legacy","42229","NA","NA","NA","NA","56826","NA","NA","54868","56472","1620","56826","53364","53359","56472","1620","CogMod 2015 Experiment","4","1811","4","yes","1024"
"1","800","150","15","100","100","424","424","white","no","xpyriment","legacy","legacy","0","uniform","1","1","m","0","0","0","0","0","4","NA","NA","4","4","0","4","4","4","4","0","Fri 27 Nov 2015 19:52:26 CET","Default description","no","mono","no","18","black","Ok","768","legacy","/home/han/Desktop/subject-1971190.csv","xpyriment","Interactive Ising","3.0.2","0","m","NA","NA","m","312","NA","NA","312","legacy","experiment","1971190","even","legacy","42229","NA","NA","NA","NA","59747","NA","NA","58631","59433","1620","59747","57124","57120","59433","1620","CogMod 2015 Experiment","5","2123","5","yes","1024"
"1","400","-150","15","100","100","406","406","white","no","xpyriment","legacy","legacy","0","uniform","1","1","z","0","0","0","0","0","5","NA","NA","5","5","0","5","5","5","5","0","Fri 27 Nov 2015 19:52:26 CET","Default description","no","mono","no","18","black","Ok","768","legacy","/home/han/Desktop/subject-1971190.csv","xpyriment","Interactive Ising","3.0.2","0","z","NA","NA","z","318","NA","NA","318","legacy","experiment","1971190","even","legacy","42229","NA","NA","NA","NA","62261","NA","NA","61535","61938","1620","62261","60032","60028","61938","1620","CogMod 2015 Experiment","6","2441","6","yes","1024"
"1","1600","150","15","100","100","391","391","white","no","xpyriment","legacy","legacy","0","uniform","1","1","m","0","0","0","0","0","6","NA","NA","6","6","0","6","6","6","6","0","Fri 27 Nov 2015 19:52:26 CET","Default description","no","mono","no","18","black","Ok","768","legacy","/home/han/Desktop/subject-1971190.csv","xpyriment","Interactive Ising","3.0.2","0","m","NA","NA","m","298","NA","NA","298","legacy","experiment","1971190","even","legacy","42229","NA","NA","NA","NA","65965","NA","NA","64060","65663","1620","65965","62545","62541","65663","1620","CogMod 2015 Experiment","7","2739","7","yes","1024"
"1","800","-150","15","100","100","378","378","white","no","xpyriment","legacy","legacy","0","uniform","1","1","z","0","0","0","0","0","7","NA","NA","7","7","0","7","7","7","7","0","Fri 27 Nov 2015 19:52:26 CET","Default description","no","mono","no","18","black","Ok","768","legacy","/home/han/Desktop/subject-1971190.csv","xpyriment","Interactive Ising","3.0.2","0","z","NA","NA","z","288","NA","NA","288","legacy","experiment","1971190","even","legacy","42229","NA","NA","NA","NA","68855","NA","NA","67759","68563","1620","68855","66257","66251","68563","1620","CogMod 2015 Experiment","8","3027","8","yes","1024"
"1","800","150","15","100","100","370","370","white","no","xpyriment","legacy","legacy","0","uniform","1","1","m","0","0","0","0","0","8","NA","NA","8","8","0","8","8","8","8","0","Fri 27 Nov 2015 19:52:26 CET","Default description","no","mono","no","18","black","Ok","768","legacy","/home/han/Desktop/subject-1971190.csv","xpyriment","Interactive Ising","3.0.2","0","m","NA","NA","m","303","NA","NA","303","legacy","experiment","1971190","even","legacy","42229","NA","NA","NA","NA","71784","NA","NA","70675","71477","1620","71784","69165","69161","71477","1620","CogMod 2015 Experiment","9","3330","9","yes","1024"
"1","1200","150","15","100","100","368","368","white","no","xpyriment","legacy","legacy","0","uniform","1","1","m","0","0","0","0","0","9","NA","NA","9","9","0","9","9","9","9","0","Fri 27 Nov 2015 19:52:26 CET","Default description","no","mono","no","18","black","Ok","768","legacy","/home/han/Desktop/subject-1971190.csv","xpyriment","Interactive Ising","3.0.2","0","m","NA","NA","m","357","NA","NA","357","legacy","experiment","1971190","even","legacy","42229","NA","NA","NA","NA","75137","NA","NA","73573","74776","1620","75137","72069","72066","74776","1620","CogMod 2015 Experiment","10","3687","10","yes","1024"
"1","1200","150","15","100","100","365","365","white","no","xpyriment","legacy","legacy","0","uniform","1","1","m","0","0","0","0","0","10","NA","NA","10","10","0","10","10","10","10","0","Fri 27 Nov 2015 19:52:26 CET","Default description","no","mono","no","18","black","Ok","768","legacy","/home/han/Desktop/subject-1971190.csv","xpyriment","Interactive Ising","3.0.2","0","m","NA","NA","m","338","NA","NA","338","legacy","experiment","1971190","even","legacy","42229","NA","NA","NA","NA","78469","NA","NA","76924","78127","1620","78469","75422","75418","78127","1620","CogMod 2015 Experiment","11","4025","11","yes","1024"
"1","1200","-150","15","100","100","365","365","white","no","xpyriment","legacy","legacy","0","uniform","1","1","z","0","0","0","0","0","11","NA","NA","11","11","0","11","11","11","11","0","Fri 27 Nov 2015 19:52:26 CET","Default description","no","mono","no","18","black","Ok","768","legacy","/home/han/Desktop/subject-1971190.csv","xpyriment","Interactive Ising","3.0.2","0","z","NA","NA","z","356","NA","NA","356","legacy","experiment","1971190","even","legacy","42229","NA","NA","NA","NA","81828","NA","NA","80263","81467","1620","81828","78760","78755","81467","1620","CogMod 2015 Experiment","12","4381","12","yes","1024"
"1","400","-150","15","100","100","377","377","white","no","xpyriment","legacy","legacy","0","uniform","1","1","z","0","0","0","0","0","12","NA","NA","12","12","0","12","12","12","12","0","Fri 27 Nov 2015 19:52:26 CET","Default description","no","mono","no","18","black","Ok","768","legacy","/home/han/Desktop/subject-1971190.csv","xpyriment","Interactive Ising","3.0.2","0","z","NA","NA","z","530","NA","NA","530","legacy","experiment","1971190","even","legacy","42229","NA","NA","NA","NA","84555","NA","NA","83617","84020","1620","84555","82113","82108","84019","1620","CogMod 2015 Experiment","13","4911","13","yes","1024"
"1","400","150","15","100","100","372","372","white","no","xpyriment","legacy","legacy","0","uniform","1","1","m","0","0","0","0","0","13","NA","NA","13","13","0","13","13","13","13","0","Fri 27 Nov 2015 19:52:26 CET","Default description","no","mono","no","18","black","Ok","768","legacy","/home/han/Desktop/subject-1971190.csv","xpyriment","Interactive Ising","3.0.2","0","m","NA","NA","m","298","NA","NA","298","legacy","experiment","1971190","even","legacy","42229","NA","NA","NA","NA","87051","NA","NA","86345","86748","1620","87051","84843","84839","86748","1620","CogMod 2015 Experiment","14","5209","14","yes","1024"
"1","1600","150","15","100","100","372","372","white","no","xpyriment","legacy","legacy","0","uniform","1","1","m","0","0","0","0","0","14","NA","NA","14","14","0","14","14","14","14","0","Fri 27 Nov 2015 19:52:26 CET","Default description","no","mono","no","18","black","Ok","768","legacy","/home/han/Desktop/subject-1971190.csv","xpyriment","Interactive Ising","3.0.2","0","m","NA","NA","m","374","NA","NA","374","legacy","experiment","1971190","even","legacy","42229","NA","NA","NA","NA","90820","NA","NA","88839","90442","1620","90820","87337","87333","90442","1620","CogMod 2015 Experiment","15","5583","15","yes","1024"
"1","400","-150","15","100","100","371","371","white","no","xpyriment","legacy","legacy","0","uniform","1","1","z","0","0","0","0","0","15","NA","NA","15","15","0","15","15","15","15","0","Fri 27 Nov 2015 19:52:26 CET","Default description","no","mono","no","18","black","Ok","768","legacy","/home/han/Desktop/subject-1971190.csv","xpyriment","Interactive Ising","3.0.2","0","z","NA","NA","z","359","NA","NA","359","legacy","experiment","1971190","even","legacy","42229","NA","NA","NA","NA","93376","NA","NA","92607","93012","1620","93376","91104","91100","93012","1620","CogMod 2015 Experiment","16","5942","16","yes","1024"
"1","1200","150","15","100","100","369","369","white","no","xpyriment","legacy","legacy","0","uniform","1","1","m","0","0","0","0","0","16","NA","NA","16","16","0","16","16","16","16","0","Fri 27 Nov 2015 19:52:26 CET","Default description","no","mono","no","18","black","Ok","768","legacy","/home/han/Desktop/subject-1971190.csv","xpyriment","Interactive Ising","3.0.2","0","m","NA","NA","m","340","NA","NA","340","legacy","experiment","1971190","even","legacy","42229","NA","NA","NA","NA","96707","NA","NA","95160","96363","1620","96707","93658","93654","96363","1620","CogMod 2015 Experiment","17","6282","17","yes","1024"
"1","1200","-150","15","100","100","365","365","white","no","xpyriment","legacy","legacy","0","uniform","1","1","z","0","0","0","0","0","17","NA","NA","17","17","0","17","17","17","17","0","Fri 27 Nov 2015 19:52:26 CET","Default description","no","mono","no","18","black","Ok","768","legacy","/home/han/Desktop/subject-1971190.csv","xpyriment","Interactive Ising","3.0.2","0","z","NA","NA","z","293","NA","NA","293","legacy","experiment","1971190","even","legacy","42229","NA","NA","NA","NA","99997","NA","NA","98497","99701","1620","99998","96995","96991","99701","1620","CogMod 2015 Experiment","18","6575","18","yes","1024"
"1","400","150","15","100","100","365","365","white","no","xpyriment","legacy","legacy","0","uniform","1","1","m","0","0","0","0","0","18","NA","NA","18","18","0","18","18","18","18","0","Fri 27 Nov 2015 19:52:26 CET","Default description","no","mono","no","18","black","Ok","768","legacy","/home/han/Desktop/subject-1971190.csv","xpyriment","Interactive Ising","3.0.2","0","m","NA","NA","m","363","NA","NA","363","legacy","experiment","1971190","even","legacy","42229","NA","NA","NA","NA","102552","NA","NA","101783","102185","1620","102552","100279","100275","102185","1620","CogMod 2015 Experiment","19","6938","19","yes","1024"
"1","800","150","15","100","100","364","364","white","no","xpyriment","legacy","legacy","0","uniform","1","1","m","0","0","0","0","0","19","NA","NA","19","19","0","19","19","19","19","0","Fri 27 Nov 2015 19:52:26 CET","Default description","no","mono","no","18","black","Ok","768","legacy","/home/han/Desktop/subject-1971190.csv","xpyriment","Interactive Ising","3.0.2","0","m","NA","NA","m","352","NA","NA","352","legacy","experiment","1971190","even","legacy","42229","NA","NA","NA","NA","105492","NA","NA","104331","105135","1620","105492","102829","102825","105135","1620","CogMod 2015 Experiment","20","7290","20","yes","1024"
"1","1200","-150","15","100","100","363","363","white","no","xpyriment","legacy","legacy","0","uniform","1","1","z","0","0","0","0","0","20","NA","NA","20","20","0","20","20","20","20","0","Fri 27 Nov 2015 19:52:26 CET","Default description","no","mono","no","18","black","Ok","768","legacy","/home/han/Desktop/subject-1971190.csv","xpyriment","Interactive Ising","3.0.2","0","z","NA","NA","z","344","NA","NA","344","legacy","experiment","1971190","even","legacy","42229","NA","NA","NA","NA","108825","NA","NA","107274","108477","1620","108826","105772","105768","108476","1620","CogMod 2015 Experiment","21","7634","21","yes","1024"
"1","800","150","15","100","100","360","360","white","no","xpyriment","legacy","legacy","0","uniform","1","1","m","0","0","0","0","0","21","NA","NA","21","21","0","21","21","21","21","0","Fri 27 Nov 2015 19:52:26 CET","Default description","no","mono","no","18","black","Ok","768","legacy","/home/han/Desktop/subject-1971190.csv","xpyriment","Interactive Ising","3.0.2","0","m","NA","NA","m","300","NA","NA","300","legacy","experiment","1971190","even","legacy","42229","NA","NA","NA","NA","111711","NA","NA","110602","111407","1620","111712","109101","109098","111407","1620","CogMod 2015 Experiment","22","7934","22","yes","1024"
"1","800","150","15","100","100","360","360","white","no","xpyriment","legacy","legacy","0","uniform","1","1","m","0","0","0","0","0","22","NA","NA","22","22","0","22","22","22","22","0","Fri 27 Nov 2015 19:52:26 CET","Default description","no","mono","no","18","black","Ok","768","legacy","/home/han/Desktop/subject-1971190.csv","xpyriment","Interactive Ising","3.0.2","0","m","NA","NA","m","348","NA","NA","348","legacy","experiment","1971190","even","legacy","42229","NA","NA","NA","NA","114695","NA","NA","113541","114344","1620","114696","111993","111990","114344","1620","CogMod 2015 Experiment","23","8282","23","yes","1024"
"1","800","150","15","100","100","359","359","white","no","xpyriment","legacy","legacy","0","uniform","1","1","m","0","0","0","0","0","23","NA","NA","23","23","0","23","23","23","23","0","Fri 27 Nov 2015 19:52:26 CET","Default description","no","mono","no","18","black","Ok","768","legacy","/home/han/Desktop/subject-1971190.csv","xpyriment","Interactive Ising","3.0.2","0","m","NA","NA","m","346","NA","NA","346","legacy","experiment","1971190","even","legacy","42229","NA","NA","NA","NA","117640","NA","NA","116486","117290","1620","117640","114984","114980","117290","1620","CogMod 2015 Experiment","24","8628","24","yes","1024"
"1","400","150","15","100","100","357","357","white","no","xpyriment","legacy","legacy","0","uniform","1","1","m","0","0","0","0","0","24","NA","NA","24","24","0","24","24","24","24","0","Fri 27 Nov 2015 19:52:26 CET","Default description","no","mono","no","18","black","Ok","768","legacy","/home/han/Desktop/subject-1971190.csv","xpyriment","Interactive Ising","3.0.2","0","m","NA","NA","m","315","NA","NA","315","legacy","experiment","1971190","even","legacy","42229","NA","NA","NA","NA","120155","NA","NA","119429","119838","1620","120155","117925","117922","119838","1620","CogMod 2015 Experiment","25","8943","25","yes","1024"
"1","400","-150","15","100","100","356","356","white","no","xpyriment","legacy","legacy","0","uniform","1","1","z","0","0","0","0","0","25","NA","NA","25","25","0","25","25","25","25","0","Fri 27 Nov 2015 19:52:26 CET","Default description","no","mono","no","18","black","Ok","768","legacy","/home/han/Desktop/subject-1971190.csv","xpyriment","Interactive Ising","3.0.2","0","z","NA","NA","z","333","NA","NA","333","legacy","experiment","1971190","even","legacy","42229","NA","NA","NA","NA","122682","NA","NA","121941","122344","1620","122682","120437","120433","122344","1620","CogMod 2015 Experiment","26","9276","26","yes","1024"
"1","1200","150","15","100","100","355","355","white","no","xpyriment","legacy","legacy","0","uniform","1","1","m","0","0","0","0","0","26","NA","NA","26","26","0","26","26","26","26","0","Fri 27 Nov 2015 19:52:26 CET","Default description","no","mono","no","18","black","Ok","768","legacy","/home/han/Desktop/subject-1971190.csv","xpyriment","Interactive Ising","3.0.2","0","m","NA","NA","m","321","NA","NA","321","legacy","experiment","1971190","even","legacy","42229","NA","NA","NA","NA","125995","NA","NA","124464","125672","1620","125995","122962","122958","125672","1620","CogMod 2015 Experiment","27","9597","27","yes","1024"
"1","400","150","15","100","100","356","356","white","no","xpyriment","legacy","legacy","0","uniform","1","1","m","0","0","0","0","0","27","NA","NA","27","27","0","27","27","27","27","0","Fri 27 Nov 2015 19:52:26 CET","Default description","no","mono","no","18","black","Ok","768","legacy","/home/han/Desktop/subject-1971190.csv","xpyriment","Interactive Ising","3.0.2","0","m","NA","NA","m","386","NA","NA","386","legacy","experiment","1971190","even","legacy","42229","NA","NA","NA","NA","128578","NA","NA","127784","128187","1620","128578","126280","126276","128187","1620","CogMod 2015 Experiment","28","9983","28","yes","1024"
"1","800","-150","15","100","100","355","355","white","no","xpyriment","legacy","legacy","0","uniform","1","1","z","0","0","0","0","0","28","NA","NA","28","28","0","28","28","28","28","0","Fri 27 Nov 2015 19:52:26 CET","Default description","no","mono","no","18","black","Ok","768","legacy","/home/han/Desktop/subject-1971190.csv","xpyriment","Interactive Ising","3.0.2","0","z","NA","NA","z","330","NA","NA","330","legacy","experiment","1971190","even","legacy","42229","NA","NA","NA","NA","131505","NA","NA","130364","131171","1620","131505","128862","128858","131171","1620","CogMod 2015 Experiment","29","10313","29","yes","1024"
"1","400","-150","15","100","100","356","356","white","no","xpyriment","legacy","legacy","0","uniform","1","1","z","0","0","0","0","0","29","NA","NA","29","29","0","29","29","29","29","0","Fri 27 Nov 2015 19:52:26 CET","Default description","no","mono","no","18","black","Ok","768","legacy","/home/han/Desktop/subject-1971190.csv","xpyriment","Interactive Ising","3.0.2","0","z","NA","NA","z","375","NA","NA","375","legacy","experiment","1971190","even","legacy","42229","NA","NA","NA","NA","134077","NA","NA","133295","133699","1620","134077","131790","131786","133699","1620","CogMod 2015 Experiment","30","10688","30","yes","1024"
"1","800","150","15","100","100","355","355","white","no","xpyriment","legacy","legacy","0","uniform","1","1","m","0","0","0","0","0","30","NA","NA","30","30","0","30","30","30","30","0","Fri 27 Nov 2015 19:52:26 CET","Default description","no","mono","no","18","black","Ok","768","legacy","/home/han/Desktop/subject-1971190.csv","xpyriment","Interactive Ising","3.0.2","0","m","NA","NA","m","332","NA","NA","332","legacy","experiment","1971190","even","legacy","42229","NA","NA","NA","NA","137001","NA","NA","135863","136667","1620","137002","134356","134353","136667","1620","CogMod 2015 Experiment","31","11020","31","yes","1024"
"1","1200","150","15","100","100","355","355","white","no","xpyriment","legacy","legacy","0","uniform","1","1","m","0","0","0","0","0","31","NA","NA","31","31","0","31","31","31","31","0","Fri 27 Nov 2015 19:52:26 CET","Default description","no","mono","no","18","black","Ok","768","legacy","/home/han/Desktop/subject-1971190.csv","xpyriment","Interactive Ising","3.0.2","0","m","NA","NA","m","342","NA","NA","342","legacy","experiment","1971190","even","legacy","42229","NA","NA","NA","NA","140339","NA","NA","138790","139994","1620","140339","137288","137283","139994","1620","CogMod 2015 Experiment","32","11362","32","yes","1024"
"1","1200","150","15","100","100","354","354","white","no","xpyriment","legacy","legacy","0","uniform","1","1","m","0","0","0","0","0","32","NA","NA","32","32","0","32","32","32","32","0","Fri 27 Nov 2015 19:52:26 CET","Default description","no","mono","no","18","black","Ok","768","legacy","/home/han/Desktop/subject-1971190.csv","xpyriment","Interactive Ising","3.0.2","0","m","NA","NA","m","335","NA","NA","335","legacy","experiment","1971190","even","legacy","42229","NA","NA","NA","NA","143676","NA","NA","142129","143337","1620","143676","140627","140622","143337","1620","CogMod 2015 Experiment","33","11697","33","yes","1024"
"1","1200","-150","15","100","100","352","352","white","no","xpyriment","legacy","legacy","0","uniform","1","1","z","0","0","0","0","0","33","NA","NA","33","33","0","33","33","33","33","0","Fri 27 Nov 2015 19:52:26 CET","Default description","no","mono","no","18","black","Ok","768","legacy","/home/han/Desktop/subject-1971190.csv","xpyriment","Interactive Ising","3.0.2","0","z","NA","NA","z","301","NA","NA","301","legacy","experiment","1971190","even","legacy","42229","NA","NA","NA","NA","146977","NA","NA","145468","146671","1620","146977","143964","143961","146670","1620","CogMod 2015 Experiment","34","11998","34","yes","1024"
"1","800","-150","15","100","100","354","354","white","no","xpyriment","legacy","legacy","0","uniform","1","1","z","0","0","0","0","0","34","NA","NA","34","34","0","34","34","34","34","0","Fri 27 Nov 2015 19:52:26 CET","Default description","no","mono","no","18","black","Ok","768","legacy","/home/han/Desktop/subject-1971190.csv","xpyriment","Interactive Ising","3.0.2","0","z","NA","NA","z","420","NA","NA","420","legacy","experiment","1971190","even","legacy","42229","NA","NA","NA","NA","149987","NA","NA","148761","149565","1620","149988","147257","147253","149565","1620","CogMod 2015 Experiment","35","12418","35","yes","1024"
"1","1200","-150","15","100","100","355","355","white","no","xpyriment","legacy","legacy","0","uniform","1","1","z","0","0","0","0","0","35","NA","NA","35","35","0","35","35","35","35","0","Fri 27 Nov 2015 19:52:26 CET","Default description","no","mono","no","18","black","Ok","768","legacy","/home/han/Desktop/subject-1971190.csv","xpyriment","Interactive Ising","3.0.2","0","z","NA","NA","z","378","NA","NA","378","legacy","experiment","1971190","even","legacy","42229","NA","NA","NA","NA","153357","NA","NA","151772","152975","1620","153357","150268","150265","152974","1620","CogMod 2015 Experiment","36","12796","36","yes","1024"
"1","400","150","15","100","100","357","357","white","no","xpyriment","legacy","legacy","0","uniform","1","1","m","0","0","0","0","0","36","NA","NA","36","36","0","36","36","36","36","0","Fri 27 Nov 2015 19:52:26 CET","Default description","no","mono","no","18","black","Ok","768","legacy","/home/han/Desktop/subject-1971190.csv","xpyriment","Interactive Ising","3.0.2","0","m","NA","NA","m","430","NA","NA","430","legacy","experiment","1971190","even","legacy","42229","NA","NA","NA","NA","155978","NA","NA","155140","155546","1620","155978","153638","153633","155546","1620","CogMod 2015 Experiment","37","13226","37","yes","1024"
"1","1200","150","15","100","100","357","357","white","no","xpyriment","legacy","legacy","0","uniform","1","1","m","0","0","0","0","0","37","NA","NA","37","37","0","37","37","37","37","0","Fri 27 Nov 2015 19:52:26 CET","Default description","no","mono","no","18","black","Ok","768","legacy","/home/han/Desktop/subject-1971190.csv","xpyriment","Interactive Ising","3.0.2","0","m","NA","NA","m","346","NA","NA","346","legacy","experiment","1971190","even","legacy","42229","NA","NA","NA","NA","159333","NA","NA","157780","158982","1620","159333","156276","156272","158982","1620","CogMod 2015 Experiment","38","13572","38","yes","1024"
"1","1600","-150","15","100","100","357","357","white","no","xpyriment","legacy","legacy","0","uniform","1","1","z","0","0","0","0","0","38","NA","NA","38","38","0","38","38","38","38","0","Fri 27 Nov 2015 19:52:26 CET","Default description","no","mono","no","18","black","Ok","768","legacy","/home/han/Desktop/subject-1971190.csv","xpyriment","Interactive Ising","3.0.2","0","z","NA","NA","z","369","NA","NA","369","legacy","experiment","1971190","even","legacy","42229","NA","NA","NA","NA","163093","NA","NA","161115","162721","1620","163093","159613","159609","162721","1620","CogMod 2015 Experiment","39","13941","39","yes","1024"
"1","400","-150","15","100","100","358","358","white","no","xpyriment","legacy","legacy","0","uniform","1","1","z","0","0","0","0","0","39","NA","NA","39","39","0","39","39","39","39","0","Fri 27 Nov 2015 19:52:26 CET","Default description","no","mono","no","18","black","Ok","768","legacy","/home/han/Desktop/subject-1971190.csv","xpyriment","Interactive Ising","3.0.2","0","z","NA","NA","z","405","NA","NA","405","legacy","experiment","1971190","even","legacy","42229","NA","NA","NA","NA","165690","NA","NA","164877","165280","1620","165690","163375","163370","165280","1620","CogMod 2015 Experiment","40","14346","40","yes","1024"
"1","1600","-150","15","100","100","358","358","white","no","xpyriment","legacy","legacy","0","uniform","1","1","z","0","0","0","0","0","40","NA","NA","40","40","0","40","40","40","40","0","Fri 27 Nov 2015 19:52:26 CET","Default description","no","mono","no","18","black","Ok","768","legacy","/home/han/Desktop/subject-1971190.csv","xpyriment","Interactive Ising","3.0.2","0","z","NA","NA","z","338","NA","NA","338","legacy","experiment","1971190","even","legacy","42229","NA","NA","NA","NA","169415","NA","NA","167469","169075","1620","169416","165965","165962","169075","1620","CogMod 2015 Experiment","41","14684","41","yes","1024"
"1","1600","150","15","100","100","358","358","white","no","xpyriment","legacy","legacy","0","uniform","1","1","m","0","0","0","0","0","41","NA","NA","41","41","0","41","41","41","41","0","Fri 27 Nov 2015 19:52:26 CET","Default description","no","mono","no","18","black","Ok","768","legacy","/home/han/Desktop/subject-1971190.csv","xpyriment","Interactive Ising","3.0.2","0","m","NA","NA","m","376","NA","NA","376","legacy","experiment","1971190","even","legacy","42229","NA","NA","NA","NA","173185","NA","NA","171203","172806","1620","173185","169701","169696","172805","1620","CogMod 2015 Experiment","42","15060","42","yes","1024"
"1","800","-150","15","100","100","358","358","white","no","xpyriment","legacy","legacy","0","uniform","1","1","z","0","0","0","0","0","42","NA","NA","42","42","0","42","42","42","42","0","Fri 27 Nov 2015 19:52:26 CET","Default description","no","mono","no","18","black","Ok","768","legacy","/home/han/Desktop/subject-1971190.csv","xpyriment","Interactive Ising","3.0.2","0","z","NA","NA","z","367","NA","NA","367","legacy","experiment","1971190","even","legacy","42229","NA","NA","NA","NA","176138","NA","NA","174965","175768","1620","176138","173464","173460","175768","1620","CogMod 2015 Experiment","43","15427","43","yes","1024"
"1","1600","-150","15","100","100","359","359","white","no","xpyriment","legacy","legacy","0","uniform","1","1","z","0","0","0","0","0","43","NA","NA","43","43","0","43","43","43","43","0","Fri 27 Nov 2015 19:52:26 CET","Default description","no","mono","no","18","black","Ok","768","legacy","/home/han/Desktop/subject-1971190.csv","xpyriment","Interactive Ising","3.0.2","0","z","NA","NA","z","389","NA","NA","389","legacy","experiment","1971190","even","legacy","42229","NA","NA","NA","NA","179937","NA","NA","177940","179544","1620","179937","176436","176431","179544","1620","CogMod 2015 Experiment","44","15816","44","yes","1024"
"1","1600","150","15","100","100","358","358","white","no","xpyriment","legacy","legacy","0","uniform","1","1","m","0","0","0","0","0","44","NA","NA","44","44","0","44","44","44","44","0","Fri 27 Nov 2015 19:52:26 CET","Default description","no","mono","no","18","black","Ok","768","legacy","/home/han/Desktop/subject-1971190.csv","xpyriment","Interactive Ising","3.0.2","0","m","NA","NA","m","306","NA","NA","306","legacy","experiment","1971190","even","legacy","42229","NA","NA","NA","NA","183633","NA","NA","181720","183322","1620","183633","180217","180215","183322","1620","CogMod 2015 Experiment","45","16122","45","yes","1024"
"1","800","-150","15","100","100","359","359","white","no","xpyriment","legacy","legacy","0","uniform","1","1","z","0","0","0","0","0","45","NA","NA","45","45","0","45","45","45","45","0","Fri 27 Nov 2015 19:52:26 CET","Default description","no","mono","no","18","black","Ok","768","legacy","/home/han/Desktop/subject-1971190.csv","xpyriment","Interactive Ising","3.0.2","0","z","NA","NA","z","422","NA","NA","422","legacy","experiment","1971190","even","legacy","42229","NA","NA","NA","NA","186644","NA","NA","185416","186218","1620","186644","183911","183909","186218","1620","CogMod 2015 Experiment","46","16544","46","yes","1024"
"1","400","-150","15","100","100","364","364","white","no","xpyriment","legacy","legacy","0","uniform","1","1","z","0","0","0","0","0","46","NA","NA","46","46","0","46","46","46","46","0","Fri 27 Nov 2015 19:52:26 CET","Default description","no","mono","no","18","black","Ok","768","legacy","/home/han/Desktop/subject-1971190.csv","xpyriment","Interactive Ising","3.0.2","0","z","NA","NA","z","572","NA","NA","572","legacy","experiment","1971190","even","legacy","42229","NA","NA","NA","NA","189438","NA","NA","188421","188862","1620","189438","186920","186917","188861","1620","CogMod 2015 Experiment","47","17116","47","yes","1024"
"1","1200","-150","15","100","100","363","363","white","no","xpyriment","legacy","legacy","0","uniform","1","1","z","0","0","0","0","0","47","NA","NA","47","47","0","47","47","47","47","0","Fri 27 Nov 2015 19:52:26 CET","Default description","no","mono","no","18","black","Ok","768","legacy","/home/han/Desktop/subject-1971190.csv","xpyriment","Interactive Ising","3.0.2","0","z","NA","NA","z","347","NA","NA","347","legacy","experiment","1971190","even","legacy","42229","NA","NA","NA","NA","192779","NA","NA","191227","192429","1620","192779","189725","189720","192429","1620","CogMod 2015 Experiment","48","17463","48","yes","1024"
"1","800","150","15","100","100","362","362","white","no","xpyriment","legacy","legacy","0","uniform","1","1","m","0","0","0","0","0","48","NA","NA","48","48","0","48","48","48","48","0","Fri 27 Nov 2015 19:52:26 CET","Default description","no","mono","no","18","black","Ok","768","legacy","/home/han/Desktop/subject-1971190.csv","xpyriment","Interactive Ising","3.0.2","0","m","NA","NA","m","317","NA","NA","317","legacy","experiment","1971190","even","legacy","42229","NA","NA","NA","NA","195671","NA","NA","194546","195350","1620","195671","193045","193042","195350","1620","CogMod 2015 Experiment","49","17780","49","yes","1024"
"1","1200","150","15","100","100","362","362","white","no","xpyriment","legacy","legacy","0","uniform","1","1","m","0","0","0","0","0","49","NA","NA","49","49","0","49","49","49","49","0","Fri 27 Nov 2015 19:52:26 CET","Default description","no","mono","no","18","black","Ok","768","legacy","/home/han/Desktop/subject-1971190.csv","xpyriment","Interactive Ising","3.0.2","0","m","NA","NA","m","350","NA","NA","350","legacy","experiment","1971190","even","legacy","42229","NA","NA","NA","NA","199017","NA","NA","197461","198664","1620","199017","195957","195954","198663","1620","CogMod 2015 Experiment","50","18130","50","yes","1024"
"1","1200","-150","15","100","100","362","362","white","no","xpyriment","legacy","legacy","0","uniform","1","1","z","0","0","0","0","0","50","NA","NA","50","50","0","50","50","50","50","0","Fri 27 Nov 2015 19:52:26 CET","Default description","no","mono","no","18","black","Ok","768","legacy","/home/han/Desktop/subject-1971190.csv","xpyriment","Interactive Ising","3.0.2","0","z","NA","NA","z","338","NA","NA","338","legacy","experiment","1971190","even","legacy","42229","NA","NA","NA","NA","202335","NA","NA","200791","201993","1620","202335","199289","199286","201992","1620","CogMod 2015 Experiment","51","18468","51","yes","1024"
"1","1600","-150","15","100","100","361","361","white","no","xpyriment","legacy","legacy","0","uniform","1","1","z","0","0","0","0","0","51","NA","NA","51","51","0","51","51","51","51","0","Fri 27 Nov 2015 19:52:26 CET","Default description","no","mono","no","18","black","Ok","768","legacy","/home/han/Desktop/subject-1971190.csv","xpyriment","Interactive Ising","3.0.2","0","z","NA","NA","z","347","NA","NA","347","legacy","experiment","1971190","even","legacy","42229","NA","NA","NA","NA","206082","NA","NA","204127","205732","1620","206082","202625","202621","205732","1620","CogMod 2015 Experiment","52","18815","52","yes","1024"
"1","400","150","15","100","100","362","362","white","no","xpyriment","legacy","legacy","0","uniform","1","1","m","0","0","0","0","0","52","NA","NA","52","52","0","52","52","52","52","0","Fri 27 Nov 2015 19:52:26 CET","Default description","no","mono","no","18","black","Ok","768","legacy","/home/han/Desktop/subject-1971190.csv","xpyriment","Interactive Ising","3.0.2","0","m","NA","NA","m","415","NA","NA","415","legacy","experiment","1971190","even","legacy","42229","NA","NA","NA","NA","208675","NA","NA","207853","208256","1620","208675","206350","206348","208256","1620","CogMod 2015 Experiment","53","19230","53","yes","1024"
"1","800","-150","15","100","100","362","362","white","no","xpyriment","legacy","legacy","0","uniform","1","1","z","0","0","0","0","0","53","NA","NA","53","53","0","53","53","53","53","0","Fri 27 Nov 2015 19:52:26 CET","Default description","no","mono","no","18","black","Ok","768","legacy","/home/han/Desktop/subject-1971190.csv","xpyriment","Interactive Ising","3.0.2","0","z","NA","NA","z","331","NA","NA","331","legacy","experiment","1971190","even","legacy","42229","NA","NA","NA","NA","211602","NA","NA","210463","211267","1620","211602","208961","208957","211267","1620","CogMod 2015 Experiment","54","19561","54","yes","1024"
"1","1200","-150","15","100","100","363","363","white","no","xpyriment","legacy","legacy","0","uniform","1","1","z","0","0","0","0","0","54","NA","NA","54","54","0","54","54","54","54","0","Fri 27 Nov 2015 19:52:26 CET","Default description","no","mono","no","18","black","Ok","768","legacy","/home/han/Desktop/subject-1971190.csv","xpyriment","Interactive Ising","3.0.2","0","z","NA","NA","z","427","NA","NA","427","legacy","experiment","1971190","even","legacy","42229","NA","NA","NA","NA","215018","NA","NA","213386","214587","1620","215018","211883","211880","214587","1620","CogMod 2015 Experiment","55","19988","55","yes","1024"
"1","1600","150","15","100","100","362","362","white","no","xpyriment","legacy","legacy","0","uniform","1","1","m","0","0","0","0","0","55","NA","NA","55","55","0","55","55","55","55","0","Fri 27 Nov 2015 19:52:26 CET","Default description","no","mono","no","18","black","Ok","768","legacy","/home/han/Desktop/subject-1971190.csv","xpyriment","Interactive Ising","3.0.2","0","m","NA","NA","m","284","NA","NA","284","legacy","experiment","1971190","even","legacy","42229","NA","NA","NA","NA","218702","NA","NA","216813","218415","1620","218702","215311","215307","218415","1620","CogMod 2015 Experiment","56","20272","56","yes","1024"
"1","1200","150","15","100","100","361","361","white","no","xpyriment","legacy","legacy","0","uniform","1","1","m","0","0","0","0","0","56","NA","NA","56","56","0","56","56","56","56","0","Fri 27 Nov 2015 19:52:26 CET","Default description","no","mono","no","18","black","Ok","768","legacy","/home/han/Desktop/subject-1971190.csv","xpyriment","Interactive Ising","3.0.2","0","m","NA","NA","m","345","NA","NA","345","legacy","experiment","1971190","even","legacy","42229","NA","NA","NA","NA","222024","NA","NA","220473","221676","1620","222024","218972","218969","221676","1620","CogMod 2015 Experiment","57","20617","57","yes","1024"
"1","800","-150","15","100","100","361","361","white","no","xpyriment","legacy","legacy","0","uniform","1","1","z","0","0","0","0","0","57","NA","NA","57","57","0","57","57","57","57","0","Fri 27 Nov 2015 19:52:26 CET","Default description","no","mono","no","18","black","Ok","768","legacy","/home/han/Desktop/subject-1971190.csv","xpyriment","Interactive Ising","3.0.2","0","z","NA","NA","z","348","NA","NA","348","legacy","experiment","1971190","even","legacy","42229","NA","NA","NA","NA","224978","NA","NA","223821","224626","1620","224978","222314","222309","224626","1620","CogMod 2015 Experiment","58","20965","58","yes","1024"
"1","400","150","15","100","100","361","361","white","no","xpyriment","legacy","legacy","0","uniform","1","1","m","0","0","0","0","0","58","NA","NA","58","58","0","58","58","58","58","0","Fri 27 Nov 2015 19:52:26 CET","Default description","no","mono","no","18","black","Ok","768","legacy","/home/han/Desktop/subject-1971190.csv","xpyriment","Interactive Ising","3.0.2","0","m","NA","NA","m","349","NA","NA","349","legacy","experiment","1971190","even","legacy","42229","NA","NA","NA","NA","227527","NA","NA","226770","227174","1620","227527","225267","225263","227173","1620","CogMod 2015 Experiment","59","21314","59","yes","1024"
"1","1600","-150","15","100","100","361","361","white","no","xpyriment","legacy","legacy","0","uniform","1","1","z","0","0","0","0","0","59","NA","NA","59","59","0","59","59","59","59","0","Fri 27 Nov 2015 19:52:26 CET","Default description","no","mono","no","18","black","Ok","768","legacy","/home/han/Desktop/subject-1971190.csv","xpyriment","Interactive Ising","3.0.2","0","z","NA","NA","z","395","NA","NA","395","legacy","experiment","1971190","even","legacy","42229","NA","NA","NA","NA","231319","NA","NA","229316","230920","1620","231319","227812","227808","230920","1620","CogMod 2015 Experiment","60","21709","60","yes","1024"
"1","800","-150","15","100","100","361","361","white","no","xpyriment","legacy","legacy","0","uniform","1","1","z","0","0","0","0","0","60","NA","NA","60","60","0","60","60","60","60","0","Fri 27 Nov 2015 19:52:26 CET","Default description","no","mono","no","18","black","Ok","768","legacy","/home/han/Desktop/subject-1971190.csv","xpyriment","Interactive Ising","3.0.2","0","z","NA","NA","z","351","NA","NA","351","legacy","experiment","1971190","even","legacy","42229","NA","NA","NA","NA","234270","NA","NA","233113","233915","1620","234270","231611","231607","233915","1620","CogMod 2015 Experiment","61","22060","61","yes","1024"
"1","800","150","15","100","100","360","360","white","no","xpyriment","legacy","legacy","0","uniform","1","1","m","0","0","0","0","0","61","NA","NA","61","61","0","61","61","61","61","0","Fri 27 Nov 2015 19:52:26 CET","Default description","no","mono","no","18","black","Ok","768","legacy","/home/han/Desktop/subject-1971190.csv","xpyriment","Interactive Ising","3.0.2","0","m","NA","NA","m","316","NA","NA","316","legacy","experiment","1971190","even","legacy","42229","NA","NA","NA","NA","237180","NA","NA","236057","236862","1620","237180","234553","234549","236862","1620","CogMod 2015 Experiment","62","22376","62","yes","1024"
"1","1200","-150","15","100","100","360","360","white","no","xpyriment","legacy","legacy","0","uniform","1","1","z","0","0","0","0","0","62","NA","NA","62","62","0","62","62","62","62","0","Fri 27 Nov 2015 19:52:26 CET","Default description","no","mono","no","18","black","Ok","768","legacy","/home/han/Desktop/subject-1971190.csv","xpyriment","Interactive Ising","3.0.2","0","z","NA","NA","z","316","NA","NA","316","legacy","experiment","1971190","even","legacy","42229","NA","NA","NA","NA","240491","NA","NA","238967","240171","1620","240491","237465","237462","240171","1620","CogMod 2015 Experiment","63","22692","63","yes","1024"
"1","800","-150","15","100","100","361","361","white","no","xpyriment","legacy","legacy","0","uniform","1","1","z","0","0","0","0","0","63","NA","NA","63","63","0","63","63","63","63","0","Fri 27 Nov 2015 19:52:26 CET","Default description","no","mono","no","18","black","Ok","768","legacy","/home/han/Desktop/subject-1971190.csv","xpyriment","Interactive Ising","3.0.2","0","z","NA","NA","z","424","NA","NA","424","legacy","experiment","1971190","even","legacy","42229","NA","NA","NA","NA","243514","NA","NA","242280","243087","1620","243515","240778","240773","243086","1620","CogMod 2015 Experiment","64","23116","64","yes","1024"
"1","400","-150","15","100","100","361","361","white","no","xpyriment","legacy","legacy","0","uniform","1","1","z","0","0","0","0","0","64","NA","NA","64","64","0","64","64","64","64","0","Fri 27 Nov 2015 19:52:26 CET","Default description","no","mono","no","18","black","Ok","768","legacy","/home/han/Desktop/subject-1971190.csv","xpyriment","Interactive Ising","3.0.2","0","z","NA","NA","z","366","NA","NA","366","legacy","experiment","1971190","even","legacy","42229","NA","NA","NA","NA","246077","NA","NA","245303","245706","1620","246077","243801","243797","245706","1620","CogMod 2015 Experiment","65","23482","65","yes","1024"
"1","1200","150","15","100","100","360","360","white","no","xpyriment","legacy","legacy","0","uniform","1","1","m","0","0","0","0","0","65","NA","NA","65","65","0","65","65","65","65","0","Fri 27 Nov 2015 19:52:26 CET","Default description","no","mono","no","18","black","Ok","768","legacy","/home/han/Desktop/subject-1971190.csv","xpyriment","Interactive Ising","3.0.2","0","m","NA","NA","m","309","NA","NA","309","legacy","experiment","1971190","even","legacy","42229","NA","NA","NA","NA","249374","NA","NA","247859","249061","1620","249374","246356","246352","249061","1620","CogMod 2015 Experiment","66","23791","66","yes","1024"
"1","400","-150","15","100","100","360","360","white","no","xpyriment","legacy","legacy","0","uniform","1","1","z","0","0","0","0","0","66","NA","NA","66","66","0","66","66","66","66","0","Fri 27 Nov 2015 19:52:26 CET","Default description","no","mono","no","18","black","Ok","768","legacy","/home/han/Desktop/subject-1971190.csv","xpyriment","Interactive Ising","3.0.2","0","z","NA","NA","z","336","NA","NA","336","legacy","experiment","1971190","even","legacy","42229","NA","NA","NA","NA","251907","NA","NA","251161","251566","1620","251907","249659","249655","251566","1620","CogMod 2015 Experiment","67","24127","67","yes","1024"
"1","1600","150","15","100","100","358","358","white","no","xpyriment","legacy","legacy","0","uniform","1","1","m","0","0","0","0","0","67","NA","NA","67","67","0","67","67","67","67","0","Fri 27 Nov 2015 19:52:26 CET","Default description","no","mono","no","18","black","Ok","768","legacy","/home/han/Desktop/subject-1971190.csv","xpyriment","Interactive Ising","3.0.2","0","m","NA","NA","m","269","NA","NA","269","legacy","experiment","1971190","even","legacy","42229","NA","NA","NA","NA","255560","NA","NA","253684","255286","1620","255560","252182","252178","255286","1620","CogMod 2015 Experiment","68","24396","68","yes","1024"
"1","400","150","15","100","100","359","359","white","no","xpyriment","legacy","legacy","0","uniform","1","1","m","0","0","0","0","0","68","NA","NA","68","68","0","68","68","68","68","0","Fri 27 Nov 2015 19:52:26 CET","Default description","no","mono","no","18","black","Ok","768","legacy","/home/han/Desktop/subject-1971190.csv","xpyriment","Interactive Ising","3.0.2","0","m","NA","NA","m","398","NA","NA","398","legacy","experiment","1971190","even","legacy","42229","NA","NA","NA","NA","258153","NA","NA","257345","257750","1620","258153","255843","255839","257750","1620","CogMod 2015 Experiment","69","24794","69","yes","1024"
"1","400","150","15","100","100","359","359","white","no","xpyriment","legacy","legacy","0","uniform","1","1","m","0","0","0","0","0","69","NA","NA","69","69","0","69","69","69","69","0","Fri 27 Nov 2015 19:52:26 CET","Default description","no","mono","no","18","black","Ok","768","legacy","/home/han/Desktop/subject-1971190.csv","xpyriment","Interactive Ising","3.0.2","0","m","NA","NA","m","398","NA","NA","398","legacy","experiment","1971190","even","legacy","42229","NA","NA","NA","NA","260765","NA","NA","259963","260364","1620","260765","258423","258419","260364","1620","CogMod 2015 Experiment","70","25192","70","yes","1024"
"1","1200","150","15","100","100","360","360","white","no","xpyriment","legacy","legacy","0","uniform","1","1","m","0","0","0","0","0","70","NA","NA","70","70","0","70","70","70","70","0","Fri 27 Nov 2015 19:52:26 CET","Default description","no","mono","no","18","black","Ok","768","legacy","/home/han/Desktop/subject-1971190.csv","xpyriment","Interactive Ising","3.0.2","0","m","NA","NA","m","381","NA","NA","381","legacy","experiment","1971190","even","legacy","42229","NA","NA","NA","NA","264138","NA","NA","262551","263754","1620","264138","261047","261044","263753","1620","CogMod 2015 Experiment","71","25573","71","yes","1024"
"1","1600","-150","15","100","100","359","359","white","no","xpyriment","legacy","legacy","0","uniform","1","1","z","0","0","0","0","0","71","NA","NA","71","71","0","71","71","71","71","0","Fri 27 Nov 2015 19:52:26 CET","Default description","no","mono","no","18","black","Ok","768","legacy","/home/han/Desktop/subject-1971190.csv","xpyriment","Interactive Ising","3.0.2","0","z","NA","NA","z","332","NA","NA","332","legacy","experiment","1971190","even","legacy","42229","NA","NA","NA","NA","267844","NA","NA","265906","267508","1620","267844","264405","264402","267508","1620","CogMod 2015 Experiment","72","25905","72","yes","1024"
"1","1600","150","15","100","100","360","360","white","no","xpyriment","legacy","legacy","0","uniform","1","1","m","0","0","0","0","0","72","NA","NA","72","72","0","72","72","72","72","0","Fri 27 Nov 2015 19:52:26 CET","Default description","no","mono","no","18","black","Ok","768","legacy","/home/han/Desktop/subject-1971190.csv","xpyriment","Interactive Ising","3.0.2","0","m","NA","NA","m","384","NA","NA","384","legacy","experiment","1971190","even","legacy","42229","NA","NA","NA","NA","271619","NA","NA","269628","271230","1620","271619","268126","268121","271230","1620","CogMod 2015 Experiment","73","26289","73","yes","1024"
"1","1200","-150","15","100","100","359","359","white","no","xpyriment","legacy","legacy","0","uniform","1","1","z","0","0","0","0","0","73","NA","NA","73","73","0","73","73","73","73","0","Fri 27 Nov 2015 19:52:26 CET","Default description","no","mono","no","18","black","Ok","768","legacy","/home/han/Desktop/subject-1971190.csv","xpyriment","Interactive Ising","3.0.2","0","z","NA","NA","z","305","NA","NA","305","legacy","experiment","1971190","even","legacy","42229","NA","NA","NA","NA","274900","NA","NA","273387","274591","1620","274900","271886","271882","274591","1620","CogMod 2015 Experiment","74","26594","74","yes","1024"
"1","400","-150","15","100","100","359","359","white","no","xpyriment","legacy","legacy","0","uniform","1","1","z","0","0","0","0","0","74","NA","NA","74","74","0","74","74","74","74","0","Fri 27 Nov 2015 19:52:26 CET","Default description","no","mono","no","18","black","Ok","768","legacy","/home/han/Desktop/subject-1971190.csv","xpyriment","Interactive Ising","3.0.2","0","z","NA","NA","z","389","NA","NA","389","legacy","experiment","1971190","even","legacy","42229","NA","NA","NA","NA","277481","NA","NA","276685","277088","1620","277482","275181","275177","277087","1620","CogMod 2015 Experiment","75","26983","75","yes","1024"
"1","1600","-150","15","100","100","359","359","white","no","xpyriment","legacy","legacy","0","uniform","1","1","z","0","0","0","0","0","75","NA","NA","75","75","0","75","75","75","75","0","Fri 27 Nov 2015 19:52:26 CET","Default description","no","mono","no","18","black","Ok","768","legacy","/home/han/Desktop/subject-1971190.csv","xpyriment","Interactive Ising","3.0.2","0","z","NA","NA","z","320","NA","NA","320","legacy","experiment","1971190","even","legacy","42229","NA","NA","NA","NA","281177","NA","NA","279249","280853","1620","281177","277748","277745","280853","1620","CogMod 2015 Experiment","76","27303","76","yes","1024"
"1","1600","-150","15","100","100","359","359","white","no","xpyriment","legacy","legacy","0","uniform","1","1","z","0","0","0","0","0","76","NA","NA","76","76","0","76","76","76","76","0","Fri 27 Nov 2015 19:52:26 CET","Default description","no","mono","no","18","black","Ok","768","legacy","/home/han/Desktop/subject-1971190.csv","xpyriment","Interactive Ising","3.0.2","0","z","NA","NA","z","353","NA","NA","353","legacy","experiment","1971190","even","legacy","42229","NA","NA","NA","NA","284926","NA","NA","282966","284570","1620","284926","281464","281460","284570","1620","CogMod 2015 Experiment","77","27656","77","yes","1024"
"1","800","150","15","100","100","358","358","white","no","xpyriment","legacy","legacy","0","uniform","1","1","m","0","0","0","0","0","77","NA","NA","77","77","0","77","77","77","77","0","Fri 27 Nov 2015 19:52:26 CET","Default description","no","mono","no","18","black","Ok","768","legacy","/home/han/Desktop/subject-1971190.csv","xpyriment","Interactive Ising","3.0.2","0","m","NA","NA","m","300","NA","NA","300","legacy","experiment","1971190","even","legacy","42229","NA","NA","NA","NA","287799","NA","NA","286694","287495","1620","287799","285191","285188","287495","1620","CogMod 2015 Experiment","78","27956","78","yes","1024"
"1","800","-150","15","100","100","357","357","white","no","xpyriment","legacy","legacy","0","uniform","1","1","z","0","0","0","0","0","78","NA","NA","78","78","0","78","78","78","78","0","Fri 27 Nov 2015 19:52:26 CET","Default description","no","mono","no","18","black","Ok","768","legacy","/home/han/Desktop/subject-1971190.csv","xpyriment","Interactive Ising","3.0.2","0","z","NA","NA","z","318","NA","NA","318","legacy","experiment","1971190","even","legacy","42229","NA","NA","NA","NA","290711","NA","NA","289585","290389","1620","290711","288082","288077","290389","1620","CogMod 2015 Experiment","79","28274","79","yes","1024"
"1","400","150","15","100","100","358","358","white","no","xpyriment","legacy","legacy","0","uniform","1","1","m","0","0","0","0","0","79","NA","NA","79","79","0","79","79","79","79","0","Fri 27 Nov 2015 19:52:26 CET","Default description","no","mono","no","18","black","Ok","768","legacy","/home/han/Desktop/subject-1971190.csv","xpyriment","Interactive Ising","3.0.2","0","m","NA","NA","m","377","NA","NA","377","legacy","experiment","1971190","even","legacy","42229","NA","NA","NA","NA","293267","NA","NA","292483","292886","1620","293267","290980","290978","292886","1620","CogMod 2015 Experiment","80","28651","80","yes","1024"
"1","400","150","15","100","100","358","358","white","no","xpyriment","legacy","legacy","0","uniform","1","1","m","0","0","0","0","0","80","NA","NA","80","80","0","80","80","80","80","0","Fri 27 Nov 2015 19:52:26 CET","Default description","no","mono","no","18","black","Ok","768","legacy","/home/han/Desktop/subject-1971190.csv","xpyriment","Interactive Ising","3.0.2","0","m","NA","NA","m","363","NA","NA","363","legacy","experiment","1971190","even","legacy","42229","NA","NA","NA","NA","295827","NA","NA","295053","295456","1620","295827","293550","293546","295456","1620","CogMod 2015 Experiment","81","29014","81","yes","1024"
"1","800","150","15","100","100","357","357","white","no","xpyriment","legacy","legacy","0","uniform","1","1","m","0","0","0","0","0","81","NA","NA","81","81","0","81","81","81","81","0","Fri 27 Nov 2015 19:52:26 CET","Default description","no","mono","no","18","black","Ok","768","legacy","/home/han/Desktop/subject-1971190.csv","xpyriment","Interactive Ising","3.0.2","0","m","NA","NA","m","329","NA","NA","329","legacy","experiment","1971190","even","legacy","42229","NA","NA","NA","NA","298751","NA","NA","297612","298417","1620","298751","296110","296106","298417","1620","CogMod 2015 Experiment","82","29343","82","yes","1024"
"1","400","-150","15","100","100","357","357","white","no","xpyriment","legacy","legacy","0","uniform","1","1","z","0","0","0","0","0","82","NA","NA","82","82","0","82","82","82","82","0","Fri 27 Nov 2015 19:52:26 CET","Default description","no","mono","no","18","black","Ok","768","legacy","/home/han/Desktop/subject-1971190.csv","xpyriment","Interactive Ising","3.0.2","0","z","NA","NA","z","356","NA","NA","356","legacy","experiment","1971190","even","legacy","42229","NA","NA","NA","NA","301299","NA","NA","300536","300939","1620","301299","299030","299027","300938","1620","CogMod 2015 Experiment","83","29699","83","yes","1024"
"1","1200","150","15","100","100","357","357","white","no","xpyriment","legacy","legacy","0","uniform","1","1","m","0","0","0","0","0","83","NA","NA","83","83","0","83","83","83","83","0","Fri 27 Nov 2015 19:52:26 CET","Default description","no","mono","no","18","black","Ok","768","legacy","/home/han/Desktop/subject-1971190.csv","xpyriment","Interactive Ising","3.0.2","0","m","NA","NA","m","300","NA","NA","300","legacy","experiment","1971190","even","legacy","42229","NA","NA","NA","NA","304590","NA","NA","303081","304286","1620","304591","301579","301575","304286","1620","CogMod 2015 Experiment","84","29999","84","yes","1024"
"1","1600","-150","15","100","100","356","356","white","no","xpyriment","legacy","legacy","0","uniform","1","1","z","0","0","0","0","0","84","NA","NA","84","84","0","84","84","84","84","0","Fri 27 Nov 2015 19:52:26 CET","Default description","no","mono","no","18","black","Ok","768","legacy","/home/han/Desktop/subject-1971190.csv","xpyriment","Interactive Ising","3.0.2","0","z","NA","NA","z","275","NA","NA","275","legacy","experiment","1971190","even","legacy","42229","NA","NA","NA","NA","308257","NA","NA","306376","307980","1620","308257","304872","304868","307980","1620","CogMod 2015 Experiment","85","30274","85","yes","1024"
"1","400","150","15","100","100","355","355","white","no","xpyriment","legacy","legacy","0","uniform","1","1","m","0","0","0","0","0","85","NA","NA","85","85","0","85","85","85","85","0","Fri 27 Nov 2015 19:52:26 CET","Default description","no","mono","no","18","black","Ok","768","legacy","/home/han/Desktop/subject-1971190.csv","xpyriment","Interactive Ising","3.0.2","0","m","NA","NA","m","327","NA","NA","327","legacy","experiment","1971190","even","legacy","42229","NA","NA","NA","NA","310775","NA","NA","310041","310445","1620","310775","308539","308535","310444","1620","CogMod 2015 Experiment","86","30601","86","yes","1024"
"1","400","-150","15","100","100","355","355","white","no","xpyriment","legacy","legacy","0","uniform","1","1","z","0","0","0","0","0","86","NA","NA","86","86","0","86","86","86","86","0","Fri 27 Nov 2015 19:52:26 CET","Default description","no","mono","no","18","black","Ok","768","legacy","/home/han/Desktop/subject-1971190.csv","xpyriment","Interactive Ising","3.0.2","0","z","NA","NA","z","292","NA","NA","292","legacy","experiment","1971190","even","legacy","42229","NA","NA","NA","NA","313256","NA","NA","312557","312960","1620","313256","311052","311048","312960","1620","CogMod 2015 Experiment","87","30893","87","yes","1024"
"1","1600","150","15","100","100","354","354","white","no","xpyriment","legacy","legacy","0","uniform","1","1","m","0","0","0","0","0","87","NA","NA","87","87","0","87","87","87","87","0","Fri 27 Nov 2015 19:52:26 CET","Default description","no","mono","no","18","black","Ok","768","legacy","/home/han/Desktop/subject-1971190.csv","xpyriment","Interactive Ising","3.0.2","0","m","NA","NA","m","324","NA","NA","324","legacy","experiment","1971190","even","legacy","42229","NA","NA","NA","NA","316978","NA","NA","315047","316649","1620","316978","313544","313540","316649","1620","CogMod 2015 Experiment","88","31217","88","yes","1024"
"1","800","-150","15","100","100","354","354","white","no","xpyriment","legacy","legacy","0","uniform","1","1","z","0","0","0","0","0","88","NA","NA","88","88","0","88","88","88","88","0","Fri 27 Nov 2015 19:52:26 CET","Default description","no","mono","no","18","black","Ok","768","legacy","/home/han/Desktop/subject-1971190.csv","xpyriment","Interactive Ising","3.0.2","0","z","NA","NA","z","291","NA","NA","291","legacy","experiment","1971190","even","legacy","42229","NA","NA","NA","NA","319858","NA","NA","318761","319564","1620","319858","317258","317253","319564","1620","CogMod 2015 Experiment","89","31508","89","yes","1024"
"1","1200","-150","15","100","100","353","353","white","no","xpyriment","legacy","legacy","0","uniform","1","1","z","0","0","0","0","0","89","NA","NA","89","89","0","89","89","89","89","0","Fri 27 Nov 2015 19:52:26 CET","Default description","no","mono","no","18","black","Ok","768","legacy","/home/han/Desktop/subject-1971190.csv","xpyriment","Interactive Ising","3.0.2","0","z","NA","NA","z","312","NA","NA","312","legacy","experiment","1971190","even","legacy","42229","NA","NA","NA","NA","323167","NA","NA","321647","322850","1620","323167","320143","320138","322849","1620","CogMod 2015 Experiment","90","31820","90","yes","1024"
"1","800","150","15","100","100","353","353","white","no","xpyriment","legacy","legacy","0","uniform","1","1","m","0","0","0","0","0","90","NA","NA","90","90","0","90","90","90","90","0","Fri 27 Nov 2015 19:52:26 CET","Default description","no","mono","no","18","black","Ok","768","legacy","/home/han/Desktop/subject-1971190.csv","xpyriment","Interactive Ising","3.0.2","0","m","NA","NA","m","341","NA","NA","341","legacy","experiment","1971190","even","legacy","42229","NA","NA","NA","NA","326098","NA","NA","324949","325753","1620","326099","323447","323444","325753","1620","CogMod 2015 Experiment","91","32161","91","yes","1024"
"1","800","-150","15","100","100","353","353","white","no","xpyriment","legacy","legacy","0","uniform","1","1","z","0","0","0","0","0","91","NA","NA","91","91","0","91","91","91","91","0","Fri 27 Nov 2015 19:52:26 CET","Default description","no","mono","no","18","black","Ok","768","legacy","/home/han/Desktop/subject-1971190.csv","xpyriment","Interactive Ising","3.0.2","0","z","NA","NA","z","323","NA","NA","323","legacy","experiment","1971190","even","legacy","42229","NA","NA","NA","NA","329015","NA","NA","327885","328689","1620","329015","326383","326378","328689","1620","CogMod 2015 Experiment","92","32484","92","yes","1024"
"1","1600","-150","15","100","100","352","352","white","no","xpyriment","legacy","legacy","0","uniform","1","1","z","0","0","0","0","0","92","NA","NA","92","92","0","92","92","92","92","0","Fri 27 Nov 2015 19:52:26 CET","Default description","no","mono","no","18","black","Ok","768","legacy","/home/han/Desktop/subject-1971190.csv","xpyriment","Interactive Ising","3.0.2","0","z","NA","NA","z","342","NA","NA","342","legacy","experiment","1971190","even","legacy","42229","NA","NA","NA","NA","332780","NA","NA","330831","332434","1620","332780","329289","329287","332434","1620","CogMod 2015 Experiment","93","32826","93","yes","1024"
"1","800","-150","15","100","100","353","353","white","no","xpyriment","legacy","legacy","0","uniform","1","1","z","0","0","0","0","0","93","NA","NA","93","93","0","93","93","93","93","0","Fri 27 Nov 2015 19:52:26 CET","Default description","no","mono","no","18","black","Ok","768","legacy","/home/han/Desktop/subject-1971190.csv","xpyriment","Interactive Ising","3.0.2","0","z","NA","NA","z","363","NA","NA","363","legacy","experiment","1971190","even","legacy","42229","NA","NA","NA","NA","335733","NA","NA","334565","335367","1620","335734","333061","333058","335367","1620","CogMod 2015 Experiment","94","33189","94","yes","1024"
"1","400","150","15","100","100","352","352","white","no","xpyriment","legacy","legacy","0","uniform","1","1","m","0","0","0","0","0","94","NA","NA","94","94","0","94","94","94","94","0","Fri 27 Nov 2015 19:52:26 CET","Default description","no","mono","no","18","black","Ok","768","legacy","/home/han/Desktop/subject-1971190.csv","xpyriment","Interactive Ising","3.0.2","0","m","NA","NA","m","338","NA","NA","338","legacy","experiment","1971190","even","legacy","42229","NA","NA","NA","NA","338247","NA","NA","337501","337905","1620","338247","336000","335998","337905","1620","CogMod 2015 Experiment","95","33527","95","yes","1024"
"1","1600","150","15","98.9583333333","98.9583333333","352","352","white","no","xpyriment","legacy","legacy","0","uniform","0","0","m","0","0","0","0","0","95","NA","NA","95","95","0","95","95","95","95","0","Fri 27 Nov 2015 19:52:26 CET","Default description","no","mono","no","18","black","Ok","768","legacy","/home/han/Desktop/subject-1971190.csv","xpyriment","Interactive Ising","3.0.2","0","z","NA","NA","z","351","NA","NA","351","legacy","experiment","1971190","even","legacy","42229","NA","NA","NA","NA","341993","NA","NA","340034","341637","1620","341993","338532","338528","341636","1620","CogMod 2015 Experiment","95","33878","96","yes","1024"
"1","1600","-150","15","98.9690721649","98.9690721649","352","352","white","no","xpyriment","legacy","legacy","0","uniform","1","1","z","0","0","0","0","0","96","NA","NA","96","96","0","96","96","96","96","0","Fri 27 Nov 2015 19:52:26 CET","Default description","no","mono","no","18","black","Ok","768","legacy","/home/han/Desktop/subject-1971190.csv","xpyriment","Interactive Ising","3.0.2","0","z","NA","NA","z","321","NA","NA","321","legacy","experiment","1971190","even","legacy","42229","NA","NA","NA","NA","345694","NA","NA","343767","345370","1620","345695","342266","342263","345369","1620","CogMod 2015 Experiment","96","34199","97","yes","1024"
"1","800","150","15","98.9795918367","98.9795918367","353","353","white","no","xpyriment","legacy","legacy","0","uniform","1","1","m","0","0","0","0","0","97","NA","NA","97","97","0","97","97","97","97","0","Fri 27 Nov 2015 19:52:26 CET","Default description","no","mono","no","18","black","Ok","768","legacy","/home/han/Desktop/subject-1971190.csv","xpyriment","Interactive Ising","3.0.2","0","m","NA","NA","m","427","NA","NA","427","legacy","experiment","1971190","even","legacy","42229","NA","NA","NA","NA","348719","NA","NA","347483","348287","1620","348719","345981","345976","348287","1620","CogMod 2015 Experiment","97","34626","98","yes","1024"
"1","1200","-150","15","98.9898989899","98.9898989899","352","352","white","no","xpyriment","legacy","legacy","0","uniform","1","1","z","0","0","0","0","0","98","NA","NA","98","98","0","98","98","98","98","0","Fri 27 Nov 2015 19:52:26 CET","Default description","no","mono","no","18","black","Ok","768","legacy","/home/han/Desktop/subject-1971190.csv","xpyriment","Interactive Ising","3.0.2","0","z","NA","NA","z","308","NA","NA","308","legacy","experiment","1971190","even","legacy","42229","NA","NA","NA","NA","352000","NA","NA","350488","351690","1620","352000","348985","348983","351689","1620","CogMod 2015 Experiment","98","34934","99","yes","1024"
"1","1200","150","15","99","99","353","353","white","no","xpyriment","legacy","legacy","0","uniform","1","1","m","0","0","0","0","0","99","NA","NA","99","99","0","99","99","99","99","0","Fri 27 Nov 2015 19:52:26 CET","Default description","no","mono","no","18","black","Ok","768","legacy","/home/han/Desktop/subject-1971190.csv","xpyriment","Interactive Ising","3.0.2","0","m","NA","NA","m","393","NA","NA","393","legacy","experiment","1971190","even","legacy","42229","NA","NA","NA","NA","355382","NA","NA","353781","354984","1620","355382","352279","352274","354984","1620","CogMod 2015 Experiment","99","35327","100","yes","1024"
"1","1200","150","15","99.0099009901","99.0099009901","353","353","white","no","xpyriment","legacy","legacy","0","uniform","1","1","m","0","0","0","0","0","100","NA","NA","100","100","0","100","100","100","100","0","Fri 27 Nov 2015 19:52:26 CET","Default description","no","mono","no","18","black","Ok","768","legacy","/home/han/Desktop/subject-1971190.csv","xpyriment","Interactive Ising","3.0.2","0","m","NA","NA","m","376","NA","NA","376","legacy","experiment","1971190","even","legacy","42229","NA","NA","NA","NA","358734","NA","NA","357150","358354","1620","358734","355649","355646","358354","1620","CogMod 2015 Experiment","100","35703","101","yes","1024"
"1","1600","150","15","99.0196078431","99.0196078431","353","353","white","no","xpyriment","legacy","legacy","0","uniform","1","1","m","0","0","0","0","0","101","NA","NA","101","101","0","101","101","101","101","0","Fri 27 Nov 2015 19:52:26 CET","Default description","no","mono","no","18","black","Ok","768","legacy","/home/han/Desktop/subject-1971190.csv","xpyriment","Interactive Ising","3.0.2","0","m","NA","NA","m","362","NA","NA","362","legacy","experiment","1971190","even","legacy","42229","NA","NA","NA","NA","362493","NA","NA","360523","362126","1620","362493","359019","359016","362125","1620","CogMod 2015 Experiment","101","36065","102","yes","1024"
"1","1600","150","15","99.0291262136","99.0291262136","353","353","white","no","xpyriment","legacy","legacy","0","uniform","1","1","m","0","0","0","0","0","102","NA","NA","102","102","0","102","102","102","102","0","Fri 27 Nov 2015 19:52:26 CET","Default description","no","mono","no","18","black","Ok","768","legacy","/home/han/Desktop/subject-1971190.csv","xpyriment","Interactive Ising","3.0.2","0","m","NA","NA","m","349","NA","NA","349","legacy","experiment","1971190","even","legacy","42229","NA","NA","NA","NA","366220","NA","NA","364264","365867","1620","366220","362763","362760","365867","1620","CogMod 2015 Experiment","102","36414","103","yes","1024"
"1","1600","150","15","99.0384615385","99.0384615385","353","353","white","no","xpyriment","legacy","legacy","0","uniform","1","1","m","0","0","0","0","0","103","NA","NA","103","103","0","103","103","103","103","0","Fri 27 Nov 2015 19:52:26 CET","Default description","no","mono","no","18","black","Ok","768","legacy","/home/han/Desktop/subject-1971190.csv","xpyriment","Interactive Ising","3.0.2","0","m","NA","NA","m","341","NA","NA","341","legacy","experiment","1971190","even","legacy","42229","NA","NA","NA","NA","369959","NA","NA","368007","369613","1620","369959","366505","366501","369613","1620","CogMod 2015 Experiment","103","36755","104","yes","1024"
"1","1600","150","15","99.0476190476","99.0476190476","353","353","white","no","xpyriment","legacy","legacy","0","uniform","1","1","m","0","0","0","0","0","104","NA","NA","104","104","0","104","104","104","104","0","Fri 27 Nov 2015 19:52:26 CET","Default description","no","mono","no","18","black","Ok","768","legacy","/home/han/Desktop/subject-1971190.csv","xpyriment","Interactive Ising","3.0.2","0","m","NA","NA","m","322","NA","NA","322","legacy","experiment","1971190","even","legacy","42229","NA","NA","NA","NA","373673","NA","NA","371744","373347","1620","373674","370241","370237","373347","1620","CogMod 2015 Experiment","104","37077","105","yes","1024"
"1","1600","150","15","99.0566037736","99.0566037736","353","353","white","no","xpyriment","legacy","legacy","0","uniform","1","1","m","0","0","0","0","0","105","NA","NA","105","105","0","105","105","105","105","0","Fri 27 Nov 2015 19:52:26 CET","Default description","no","mono","no","18","black","Ok","768","legacy","/home/han/Desktop/subject-1971190.csv","xpyriment","Interactive Ising","3.0.2","0","m","NA","NA","m","344","NA","NA","344","legacy","experiment","1971190","even","legacy","42229","NA","NA","NA","NA","377410","NA","NA","375458","377063","1620","377410","373956","373952","377062","1620","CogMod 2015 Experiment","105","37421","106","yes","1024"
"1","400","-150","15","99.0654205607","99.0654205607","353","353","white","no","xpyriment","legacy","legacy","0","uniform","1","1","z","0","0","0","0","0","106","NA","NA","106","106","0","106","106","106","106","0","Fri 27 Nov 2015 19:52:26 CET","Default description","no","mono","no","18","black","Ok","768","legacy","/home/han/Desktop/subject-1971190.csv","xpyriment","Interactive Ising","3.0.2","0","z","NA","NA","z","418","NA","NA","418","legacy","experiment","1971190","even","legacy","42229","NA","NA","NA","NA","380022","NA","NA","379194","379599","1620","380022","377692","377688","379599","1620","CogMod 2015 Experiment","106","37839","107","yes","1024"
"1","800","150","15","99.0740740741","99.0740740741","353","353","white","no","xpyriment","legacy","legacy","0","uniform","1","1","m","0","0","0","0","0","107","NA","NA","107","107","0","107","107","107","107","0","Fri 27 Nov 2015 19:52:26 CET","Default description","no","mono","no","18","black","Ok","768","legacy","/home/han/Desktop/subject-1971190.csv","xpyriment","Interactive Ising","3.0.2","0","m","NA","NA","m","359","NA","NA","359","legacy","experiment","1971190","even","legacy","42229","NA","NA","NA","NA","382976","NA","NA","381811","382613","1620","382976","380307","380303","382613","1620","CogMod 2015 Experiment","107","38198","108","yes","1024"
"1","1200","-150","15","99.0825688073","99.0825688073","353","353","white","no","xpyriment","legacy","legacy","0","uniform","1","1","z","0","0","0","0","0","108","NA","NA","108","108","0","108","108","108","108","0","Fri 27 Nov 2015 19:52:26 CET","Default description","no","mono","no","18","black","Ok","768","legacy","/home/han/Desktop/subject-1971190.csv","xpyriment","Interactive Ising","3.0.2","0","z","NA","NA","z","329","NA","NA","329","legacy","experiment","1971190","even","legacy","42229","NA","NA","NA","NA","386297","NA","NA","384762","385964","1620","386297","383259","383255","385964","1620","CogMod 2015 Experiment","108","38527","109","yes","1024"
"1","800","-150","15","99.0909090909","99.0909090909","354","354","white","no","xpyriment","legacy","legacy","0","uniform","1","1","z","0","0","0","0","0","109","NA","NA","109","109","0","109","109","109","109","0","Fri 27 Nov 2015 19:52:26 CET","Default description","no","mono","no","18","black","Ok","768","legacy","/home/han/Desktop/subject-1971190.csv","xpyriment","Interactive Ising","3.0.2","0","z","NA","NA","z","487","NA","NA","487","legacy","experiment","1971190","even","legacy","42229","NA","NA","NA","NA","389378","NA","NA","388081","388888","1620","389379","386579","386575","388887","1620","CogMod 2015 Experiment","109","39014","110","yes","1024"
"1","800","-150","15","99.0990990991","99.0990990991","354","354","white","no","xpyriment","legacy","legacy","0","uniform","1","1","z","0","0","0","0","0","110","NA","NA","110","110","0","110","110","110","110","0","Fri 27 Nov 2015 19:52:26 CET","Default description","no","mono","no","18","black","Ok","768","legacy","/home/han/Desktop/subject-1971190.csv","xpyriment","Interactive Ising","3.0.2","0","z","NA","NA","z","343","NA","NA","343","legacy","experiment","1971190","even","legacy","42229","NA","NA","NA","NA","392318","NA","NA","391167","391970","1620","392318","389665","389661","391969","1620","CogMod 2015 Experiment","110","39357","111","yes","1024"
"1","1600","-150","15","99.1071428571","99.1071428571","355","355","white","no","xpyriment","legacy","legacy","0","uniform","1","1","z","0","0","0","0","0","111","NA","NA","111","111","0","111","111","111","111","0","Fri 27 Nov 2015 19:52:26 CET","Default description","no","mono","no","18","black","Ok","768","legacy","/home/han/Desktop/subject-1971190.csv","xpyriment","Interactive Ising","3.0.2","0","z","NA","NA","z","405","NA","NA","405","legacy","experiment","1971190","even","legacy","42229","NA","NA","NA","NA","396118","NA","NA","394106","395710","1620","396118","392603","392599","395710","1620","CogMod 2015 Experiment","111","39762","112","yes","1024"
"1","800","150","15","99.1150442478","99.1150442478","354","354","white","no","xpyriment","legacy","legacy","0","uniform","1","1","m","0","0","0","0","0","112","NA","NA","112","112","0","112","112","112","112","0","Fri 27 Nov 2015 19:52:26 CET","Default description","no","mono","no","18","black","Ok","768","legacy","/home/han/Desktop/subject-1971190.csv","xpyriment","Interactive Ising","3.0.2","0","m","NA","NA","m","336","NA","NA","336","legacy","experiment","1971190","even","legacy","42229","NA","NA","NA","NA","399052","NA","NA","397907","398711","1620","399052","396403","396399","398711","1620","CogMod 2015 Experiment","112","40098","113","yes","1024"
"1","400","-150","15","99.1228070175","99.1228070175","354","354","white","no","xpyriment","legacy","legacy","0","uniform","1","1","z","0","0","0","0","0","113","NA","NA","113","113","0","113","113","113","113","0","Fri 27 Nov 2015 19:52:26 CET","Default description","no","mono","no","18","black","Ok","768","legacy","/home/han/Desktop/subject-1971190.csv","xpyriment","Interactive Ising","3.0.2","0","z","NA","NA","z","337","NA","NA","337","legacy","experiment","1971190","even","legacy","42229","NA","NA","NA","NA","401575","NA","NA","400829","401233","1620","401575","399328","399325","401233","1620","CogMod 2015 Experiment","113","40435","114","yes","1024"
"1","1200","-150","15","99.1304347826","99.1304347826","354","354","white","no","xpyriment","legacy","legacy","0","uniform","1","1","z","0","0","0","0","0","114","NA","NA","114","114","0","114","114","114","114","0","Fri 27 Nov 2015 19:52:26 CET","Default description","no","mono","no","18","black","Ok","768","legacy","/home/han/Desktop/subject-1971190.csv","xpyriment","Interactive Ising","3.0.2","0","z","NA","NA","z","362","NA","NA","362","legacy","experiment","1971190","even","legacy","42229","NA","NA","NA","NA","404932","NA","NA","403364","404566","1620","404932","401860","401855","404566","1620","CogMod 2015 Experiment","114","40797","115","yes","1024"
"1","1600","150","15","99.1379310345","99.1379310345","354","354","white","no","xpyriment","legacy","legacy","0","uniform","1","1","m","0","0","0","0","0","115","NA","NA","115","115","0","115","115","115","115","0","Fri 27 Nov 2015 19:52:26 CET","Default description","no","mono","no","18","black","Ok","768","legacy","/home/han/Desktop/subject-1971190.csv","xpyriment","Interactive Ising","3.0.2","0","m","NA","NA","m","324","NA","NA","324","legacy","experiment","1971190","even","legacy","42229","NA","NA","NA","NA","408679","NA","NA","406751","408353","1620","408679","405211","405208","408353","1620","CogMod 2015 Experiment","115","41121","116","yes","1024"
"1","400","-150","15","99.1452991453","99.1452991453","354","354","white","no","xpyriment","legacy","legacy","0","uniform","1","1","z","0","0","0","0","0","116","NA","NA","116","116","0","116","116","116","116","0","Fri 27 Nov 2015 19:52:26 CET","Default description","no","mono","no","18","black","Ok","768","legacy","/home/han/Desktop/subject-1971190.csv","xpyriment","Interactive Ising","3.0.2","0","z","NA","NA","z","377","NA","NA","377","legacy","experiment","1971190","even","legacy","42229","NA","NA","NA","NA","411252","NA","NA","410467","410871","1620","411253","408965","408961","410871","1620","CogMod 2015 Experiment","116","41498","117","yes","1024"
"1","1600","-150","15","99.1525423729","99.1525423729","354","354","white","no","xpyriment","legacy","legacy","0","uniform","1","1","z","0","0","0","0","0","117","NA","NA","117","117","0","117","117","117","117","0","Fri 27 Nov 2015 19:52:26 CET","Default description","no","mono","no","18","black","Ok","768","legacy","/home/han/Desktop/subject-1971190.csv","xpyriment","Interactive Ising","3.0.2","0","z","NA","NA","z","325","NA","NA","325","legacy","experiment","1971190","even","legacy","42229","NA","NA","NA","NA","414955","NA","NA","413025","414627","1620","414955","411524","411521","414626","1620","CogMod 2015 Experiment","117","41823","118","yes","1024"
"1","400","150","15","99.1596638655","99.1596638655","354","354","white","no","xpyriment","legacy","legacy","0","uniform","1","1","m","0","0","0","0","0","118","NA","NA","118","118","0","118","118","118","118","0","Fri 27 Nov 2015 19:52:26 CET","Default description","no","mono","no","18","black","Ok","768","legacy","/home/han/Desktop/subject-1971190.csv","xpyriment","Interactive Ising","3.0.2","0","m","NA","NA","m","377","NA","NA","377","legacy","experiment","1971190","even","legacy","42229","NA","NA","NA","NA","417535","NA","NA","416748","417153","1620","417535","415245","415241","417153","1620","CogMod 2015 Experiment","118","42200","119","yes","1024"
"1","400","150","15","99.1666666667","99.1666666667","355","355","white","no","xpyriment","legacy","legacy","0","uniform","1","1","m","0","0","0","0","0","119","NA","NA","119","119","0","119","119","119","119","0","Fri 27 Nov 2015 19:52:26 CET","Default description","no","mono","no","18","black","Ok","768","legacy","/home/han/Desktop/subject-1971190.csv","xpyriment","Interactive Ising","3.0.2","0","m","NA","NA","m","412","NA","NA","412","legacy","experiment","1971190","even","legacy","42229","NA","NA","NA","NA","420130","NA","NA","419312","419715","1620","420130","417808","417805","419715","1620","CogMod 2015 Experiment","119","42612","120","yes","1024"
"2","1600","-150","32","100","100","340","340","white","no","xpyriment","legacy","legacy","0","uniform","1","1","z","0","0","0","0","0","120","0","NA","120","120","0","120","120","120","120","0","Fri 27 Nov 2015 19:52:26 CET","Default description","no","mono","no","18","black","Ok","768","legacy","/home/han/Desktop/subject-1971190.csv","xpyriment","Interactive Ising","3.0.2","0","z","space","NA","z","340","13055","NA","340","legacy","experiment","1971190","even","legacy","42229","433376","NA","NA","NA","437101","420320","NA","435156","436758","1620","437101","433654","433651","436758","1620","CogMod 2015 Experiment","1","340","1","yes","1024"
"2","1600","150","32","100","100","332","332","white","no","xpyriment","legacy","legacy","0","uniform","1","1","m","0","0","0","0","0","121","0","NA","121","121","0","121","121","121","121","0","Fri 27 Nov 2015 19:52:26 CET","Default description","no","mono","no","18","black","Ok","768","legacy","/home/han/Desktop/subject-1971190.csv","xpyriment","Interactive Ising","3.0.2","0","m","space","NA","m","325","13055","NA","325","legacy","experiment","1971190","even","legacy","42229","433376","NA","NA","NA","440819","420320","NA","438888","440490","1620","440819","437384","437379","440490","1620","CogMod 2015 Experiment","2","665","2","yes","1024"
"2","1600","-150","32","100","100","315","315","white","no","xpyriment","legacy","legacy","0","uniform","1","1","z","0","0","0","0","0","122","0","NA","122","122","0","122","122","122","122","0","Fri 27 Nov 2015 19:52:26 CET","Default description","no","mono","no","18","black","Ok","768","legacy","/home/han/Desktop/subject-1971190.csv","xpyriment","Interactive Ising","3.0.2","0","z","space","NA","z","280","13055","NA","280","legacy","experiment","1971190","even","legacy","42229","433376","NA","NA","NA","444497","420320","NA","442610","444213","1620","444497","441106","441102","444212","1620","CogMod 2015 Experiment","3","945","3","yes","1024"
"2","400","150","4","100","100","318","318","white","no","xpyriment","legacy","legacy","0","uniform","1","1","m","0","0","0","0","0","123","0","NA","123","123","0","123","123","123","123","0","Fri 27 Nov 2015 19:52:26 CET","Default description","no","mono","no","18","black","Ok","768","legacy","/home/han/Desktop/subject-1971190.csv","xpyriment","Interactive Ising","3.0.2","0","m","space","NA","m","330","13055","NA","330","legacy","experiment","1971190","even","legacy","42229","433376","NA","NA","NA","447021","420320","NA","446282","446689","1620","447021","444780","444775","446689","1620","CogMod 2015 Experiment","4","1275","4","yes","1024"
"2","1600","150","32","100","100","323","323","white","no","xpyriment","legacy","legacy","0","uniform","1","1","m","0","0","0","0","0","124","0","NA","124","124","0","124","124","124","124","0","Fri 27 Nov 2015 19:52:26 CET","Default description","no","mono","no","18","black","Ok","768","legacy","/home/han/Desktop/subject-1971190.csv","xpyriment","Interactive Ising","3.0.2","0","m","space","NA","m","341","13055","NA","341","legacy","experiment","1971190","even","legacy","42229","433376","NA","NA","NA","450763","420320","NA","448813","450417","1620","450763","447309","447306","450417","1620","CogMod 2015 Experiment","5","1616","5","yes","1024"
"2","1200","150","16","100","100","323","323","white","no","xpyriment","legacy","legacy","0","uniform","1","1","m","0","0","0","0","0","125","0","NA","125","125","0","125","125","125","125","0","Fri 27 Nov 2015 19:52:26 CET","Default description","no","mono","no","18","black","Ok","768","legacy","/home/han/Desktop/subject-1971190.csv","xpyriment","Interactive Ising","3.0.2","0","m","space","NA","m","326","13055","NA","326","legacy","experiment","1971190","even","legacy","42229","433376","NA","NA","NA","454077","420320","NA","452548","453749","1620","454077","451043","451039","453749","1620","CogMod 2015 Experiment","6","1942","6","yes","1024"
"2","1200","150","16","100","100","327","327","white","no","xpyriment","legacy","legacy","0","uniform","1","1","m","0","0","0","0","0","126","0","NA","126","126","0","126","126","126","126","0","Fri 27 Nov 2015 19:52:26 CET","Default description","no","mono","no","18","black","Ok","768","legacy","/home/han/Desktop/subject-1971190.csv","xpyriment","Interactive Ising","3.0.2","0","m","space","NA","m","351","13055","NA","351","legacy","experiment","1971190","even","legacy","42229","433376","NA","NA","NA","457425","420320","NA","455867","457070","1620","457425","454364","454360","457069","1620","CogMod 2015 Experiment","7","2293","7","yes","1024"
"2","1600","150","32","100","100","325","325","white","no","xpyriment","legacy","legacy","0","uniform","1","1","m","0","0","0","0","0","127","0","NA","127","127","0","127","127","127","127","0","Fri 27 Nov 2015 19:52:26 CET","Default description","no","mono","no","18","black","Ok","768","legacy","/home/han/Desktop/subject-1971190.csv","xpyriment","Interactive Ising","3.0.2","0","m","space","NA","m","313","13055","NA","313","legacy","experiment","1971190","even","legacy","42229","433376","NA","NA","NA","461130","420320","NA","459207","460812","1620","461130","457705","457702","460812","1620","CogMod 2015 Experiment","8","2606","8","yes","1024"
"2","800","-150","8","100","100","328","328","white","no","xpyriment","legacy","legacy","0","uniform","1","1","z","0","0","0","0","0","128","0","NA","128","128","0","128","128","128","128","0","Fri 27 Nov 2015 19:52:26 CET","Default description","no","mono","no","18","black","Ok","768","legacy","/home/han/Desktop/subject-1971190.csv","xpyriment","Interactive Ising","3.0.2","0","z","space","NA","z","350","13055","NA","350","legacy","experiment","1971190","even","legacy","42229","433376","NA","NA","NA","464080","420320","NA","462920","463725","1620","464080","461418","461414","463725","1620","CogMod 2015 Experiment","9","2956","9","yes","1024"
"2","1600","-150","32","100","100","331","331","white","no","xpyriment","legacy","legacy","0","uniform","1","1","z","0","0","0","0","0","129","0","NA","129","129","0","129","129","129","129","0","Fri 27 Nov 2015 19:52:26 CET","Default description","no","mono","no","18","black","Ok","768","legacy","/home/han/Desktop/subject-1971190.csv","xpyriment","Interactive Ising","3.0.2","0","z","space","NA","z","361","13055","NA","361","legacy","experiment","1971190","even","legacy","42229","433376","NA","NA","NA","467822","420320","NA","465855","467457","1620","467822","464354","464351","467456","1620","CogMod 2015 Experiment","10","3317","10","yes","1024"
"2","1200","150","16","100","100","329","329","white","no","xpyriment","legacy","legacy","0","uniform","1","1","m","0","0","0","0","0","130","0","NA","130","130","0","130","130","130","130","0","Fri 27 Nov 2015 19:52:26 CET","Default description","no","mono","no","18","black","Ok","768","legacy","/home/han/Desktop/subject-1971190.csv","xpyriment","Interactive Ising","3.0.2","0","m","space","NA","m","311","13055","NA","311","legacy","experiment","1971190","even","legacy","42229","433376","NA","NA","NA","471130","420320","NA","469610","470814","1620","471130","468107","468103","470814","1620","CogMod 2015 Experiment","11","3628","11","yes","1024"
"2","1600","-150","32","100","100","332","332","white","no","xpyriment","legacy","legacy","0","uniform","1","1","z","0","0","0","0","0","131","0","NA","131","131","0","131","131","131","131","0","Fri 27 Nov 2015 19:52:26 CET","Default description","no","mono","no","18","black","Ok","768","legacy","/home/han/Desktop/subject-1971190.csv","xpyriment","Interactive Ising","3.0.2","0","z","space","NA","z","364","13055","NA","364","legacy","experiment","1971190","even","legacy","42229","433376","NA","NA","NA","474875","420320","NA","472905","474507","1620","474875","471404","471400","474506","1620","CogMod 2015 Experiment","12","3992","12","yes","1024"
"2","1600","150","32","100","100","331","331","white","no","xpyriment","legacy","legacy","0","uniform","1","1","m","0","0","0","0","0","132","0","NA","132","132","0","132","132","132","132","0","Fri 27 Nov 2015 19:52:26 CET","Default description","no","mono","no","18","black","Ok","768","legacy","/home/han/Desktop/subject-1971190.csv","xpyriment","Interactive Ising","3.0.2","0","m","space","NA","m","312","13055","NA","312","legacy","experiment","1971190","even","legacy","42229","433376","NA","NA","NA","478585","420320","NA","476668","478270","1620","478586","475163","475159","478270","1620","CogMod 2015 Experiment","13","4304","13","yes","1024"
"2","1200","-150","16","100","100","336","336","white","no","xpyriment","legacy","legacy","0","uniform","1","1","z","0","0","0","0","0","133","0","NA","133","133","0","133","133","133","133","0","Fri 27 Nov 2015 19:52:26 CET","Default description","no","mono","no","18","black","Ok","768","legacy","/home/han/Desktop/subject-1971190.csv","xpyriment","Interactive Ising","3.0.2","0","z","space","NA","z","405","13055","NA","405","legacy","experiment","1971190","even","legacy","42229","433376","NA","NA","NA","481987","420320","NA","480374","481578","1620","481987","478872","478867","481578","1620","CogMod 2015 Experiment","14","4709","14","yes","1024"
"2","1600","-150","32","100","100","337","337","white","no","xpyriment","legacy","legacy","0","uniform","1","1","z","0","0","0","0","0","134","0","NA","134","134","0","134","134","134","134","0","Fri 27 Nov 2015 19:52:26 CET","Default description","no","mono","no","18","black","Ok","768","legacy","/home/han/Desktop/subject-1971190.csv","xpyriment","Interactive Ising","3.0.2","0","z","space","NA","z","355","13055","NA","355","legacy","experiment","1971190","even","legacy","42229","433376","NA","NA","NA","485744","420320","NA","483784","485386","1620","485744","482277","482273","485386","1620","CogMod 2015 Experiment","15","5064","15","yes","1024"
"2","1200","-150","16","100","100","340","340","white","no","xpyriment","legacy","legacy","0","uniform","1","1","z","0","0","0","0","0","135","0","NA","135","135","0","135","135","135","135","0","Fri 27 Nov 2015 19:52:26 CET","Default description","no","mono","no","18","black","Ok","768","legacy","/home/han/Desktop/subject-1971190.csv","xpyriment","Interactive Ising","3.0.2","0","z","space","NA","z","378","13055","NA","378","legacy","experiment","1971190","even","legacy","42229","433376","NA","NA","NA","489121","420320","NA","487537","488740","1620","489122","486032","486029","488739","1620","CogMod 2015 Experiment","16","5442","16","yes","1024"
"2","1600","-150","32","100","100","341","341","white","no","xpyriment","legacy","legacy","0","uniform","1","1","z","0","0","0","0","0","136","0","NA","136","136","0","136","136","136","136","0","Fri 27 Nov 2015 19:52:26 CET","Default description","no","mono","no","18","black","Ok","768","legacy","/home/han/Desktop/subject-1971190.csv","xpyriment","Interactive Ising","3.0.2","0","z","space","NA","z","357","13055","NA","357","legacy","experiment","1971190","even","legacy","42229","433376","NA","NA","NA","492927","420320","NA","490963","492566","1620","492927","489419","489414","492566","1620","CogMod 2015 Experiment","17","5799","17","yes","1024"
"2","1200","-150","16","100","100","345","345","white","no","xpyriment","legacy","legacy","0","uniform","1","1","z","0","0","0","0","0","137","0","NA","137","137","0","137","137","137","137","0","Fri 27 Nov 2015 19:52:26 CET","Default description","no","mono","no","18","black","Ok","768","legacy","/home/han/Desktop/subject-1971190.csv","xpyriment","Interactive Ising","3.0.2","0","z","space","NA","z","415","13055","NA","415","legacy","experiment","1971190","even","legacy","42229","433376","NA","NA","NA","496335","420320","NA","494712","495915","1620","496335","493210","493205","495914","1620","CogMod 2015 Experiment","18","6214","18","yes","1024"
"2","1600","-150","32","100","100","346","346","white","no","xpyriment","legacy","legacy","0","uniform","1","1","z","0","0","0","0","0","138","0","NA","138","138","0","138","138","138","138","0","Fri 27 Nov 2015 19:52:26 CET","Default description","no","mono","no","18","black","Ok","768","legacy","/home/han/Desktop/subject-1971190.csv","xpyriment","Interactive Ising","3.0.2","0","z","space","NA","z","366","13055","NA","366","legacy","experiment","1971190","even","legacy","42229","433376","NA","NA","NA","500096","420320","NA","498121","499728","1620","500096","496619","496614","499728","1620","CogMod 2015 Experiment","19","6580","19","yes","1024"
"2","1600","150","32","100","100","344","344","white","no","xpyriment","legacy","legacy","0","uniform","1","1","m","0","0","0","0","0","139","0","NA","139","139","0","139","139","139","139","0","Fri 27 Nov 2015 19:52:26 CET","Default description","no","mono","no","18","black","Ok","768","legacy","/home/han/Desktop/subject-1971190.csv","xpyriment","Interactive Ising","3.0.2","0","m","space","NA","m","314","13055","NA","314","legacy","experiment","1971190","even","legacy","42229","433376","NA","NA","NA","503803","420320","NA","501883","503486","1620","503803","500381","500377","503486","1620","CogMod 2015 Experiment","20","6894","20","yes","1024"
"2","1600","-150","32","100","100","340","340","white","no","xpyriment","legacy","legacy","0","uniform","1","1","z","0","0","0","0","0","140","0","NA","140","140","0","140","140","140","140","0","Fri 27 Nov 2015 19:52:26 CET","Default description","no","mono","no","18","black","Ok","768","legacy","/home/han/Desktop/subject-1971190.csv","xpyriment","Interactive Ising","3.0.2","0","z","space","NA","z","258","13055","NA","258","legacy","experiment","1971190","even","legacy","42229","433376","NA","NA","NA","507451","420320","NA","505587","507189","1620","507451","504081","504077","507189","1620","CogMod 2015 Experiment","21","7152","21","yes","1024"
"2","1600","150","32","100","100","339","339","white","no","xpyriment","legacy","legacy","0","uniform","1","1","m","0","0","0","0","0","141","0","NA","141","141","0","141","141","141","141","0","Fri 27 Nov 2015 19:52:26 CET","Default description","no","mono","no","18","black","Ok","768","legacy","/home/han/Desktop/subject-1971190.csv","xpyriment","Interactive Ising","3.0.2","0","m","space","NA","m","316","13055","NA","316","legacy","experiment","1971190","even","legacy","42229","433376","NA","NA","NA","511167","420320","NA","509242","510846","1620","511167","507740","507735","510846","1620","CogMod 2015 Experiment","22","7468","22","yes","1024"
"2","1600","150","32","100","100","339","339","white","no","xpyriment","legacy","legacy","0","uniform","1","1","m","0","0","0","0","0","142","0","NA","142","142","0","142","142","142","142","0","Fri 27 Nov 2015 19:52:26 CET","Default description","no","mono","no","18","black","Ok","768","legacy","/home/han/Desktop/subject-1971190.csv","xpyriment","Interactive Ising","3.0.2","0","m","space","NA","m","329","13055","NA","329","legacy","experiment","1971190","even","legacy","42229","433376","NA","NA","NA","514890","420320","NA","512953","514557","1620","514890","511448","511444","514557","1620","CogMod 2015 Experiment","23","7797","23","yes","1024"
"2","1600","150","32","100","100","337","337","white","no","xpyriment","legacy","legacy","0","uniform","1","1","m","0","0","0","0","0","143","0","NA","143","143","0","143","143","143","143","0","Fri 27 Nov 2015 19:52:26 CET","Default description","no","mono","no","18","black","Ok","768","legacy","/home/han/Desktop/subject-1971190.csv","xpyriment","Interactive Ising","3.0.2","0","m","space","NA","m","302","13055","NA","302","legacy","experiment","1971190","even","legacy","42229","433376","NA","NA","NA","518589","420320","NA","516679","518282","1620","518589","515174","515170","518281","1620","CogMod 2015 Experiment","24","8099","24","yes","1024"
"2","1200","150","16","100","100","337","337","white","no","xpyriment","legacy","legacy","0","uniform","1","1","m","0","0","0","0","0","144","0","NA","144","144","0","144","144","144","144","0","Fri 27 Nov 2015 19:52:26 CET","Default description","no","mono","no","18","black","Ok","768","legacy","/home/han/Desktop/subject-1971190.csv","xpyriment","Interactive Ising","3.0.2","0","m","space","NA","m","339","13055","NA","339","legacy","experiment","1971190","even","legacy","42229","433376","NA","NA","NA","521922","420320","NA","520375","521580","1620","521922","518871","518867","521580","1620","CogMod 2015 Experiment","25","8438","25","yes","1024"
"2","1600","150","32","100","100","339","339","white","no","xpyriment","legacy","legacy","0","uniform","1","1","m","0","0","0","0","0","145","0","NA","145","145","0","145","145","145","145","0","Fri 27 Nov 2015 19:52:26 CET","Default description","no","mono","no","18","black","Ok","768","legacy","/home/han/Desktop/subject-1971190.csv","xpyriment","Interactive Ising","3.0.2","0","m","space","NA","m","387","13055","NA","387","legacy","experiment","1971190","even","legacy","42229","433376","NA","NA","NA","525703","420320","NA","523708","525311","1620","525703","522206","522202","525311","1620","CogMod 2015 Experiment","26","8825","26","yes","1024"
"2","1600","150","32","100","100","340","340","white","no","xpyriment","legacy","legacy","0","uniform","1","1","m","0","0","0","0","0","146","0","NA","146","146","0","146","146","146","146","0","Fri 27 Nov 2015 19:52:26 CET","Default description","no","mono","no","18","black","Ok","768","legacy","/home/han/Desktop/subject-1971190.csv","xpyriment","Interactive Ising","3.0.2","0","m","space","NA","m","359","13055","NA","359","legacy","experiment","1971190","even","legacy","42229","433376","NA","NA","NA","529451","420320","NA","527485","529090","1620","529451","525983","525979","529090","1620","CogMod 2015 Experiment","27","9184","27","yes","1024"
"2","800","-150","8","100","100","343","343","white","no","xpyriment","legacy","legacy","0","uniform","1","1","z","0","0","0","0","0","147","0","NA","147","147","0","147","147","147","147","0","Fri 27 Nov 2015 19:52:26 CET","Default description","no","mono","no","18","black","Ok","768","legacy","/home/han/Desktop/subject-1971190.csv","xpyriment","Interactive Ising","3.0.2","0","z","space","NA","z","430","13055","NA","430","legacy","experiment","1971190","even","legacy","42229","433376","NA","NA","NA","532474","420320","NA","531235","532039","1620","532474","529732","529728","532039","1620","CogMod 2015 Experiment","28","9614","28","yes","1024"
"2","400","150","4","100","100","345","345","white","no","xpyriment","legacy","legacy","0","uniform","1","1","m","0","0","0","0","0","148","0","NA","148","148","0","148","148","148","148","0","Fri 27 Nov 2015 19:52:26 CET","Default description","no","mono","no","18","black","Ok","768","legacy","/home/han/Desktop/subject-1971190.csv","xpyriment","Interactive Ising","3.0.2","0","m","space","NA","m","393","13055","NA","393","legacy","experiment","1971190","even","legacy","42229","433376","NA","NA","NA","535058","420320","NA","534255","534663","1620","535058","532752","532748","534663","1620","CogMod 2015 Experiment","29","10007","29","yes","1024"
"2","800","150","8","100","100","345","345","white","no","xpyriment","legacy","legacy","0","uniform","1","1","m","0","0","0","0","0","149","0","NA","149","149","0","149","149","149","149","0","Fri 27 Nov 2015 19:52:26 CET","Default description","no","mono","no","18","black","Ok","768","legacy","/home/han/Desktop/subject-1971190.csv","xpyriment","Interactive Ising","3.0.2","0","m","space","NA","m","372","13055","NA","372","legacy","experiment","1971190","even","legacy","42229","433376","NA","NA","NA","538029","420320","NA","536848","537653","1620","538030","535342","535338","537653","1620","CogMod 2015 Experiment","30","10379","30","yes","1024"
"2","1600","150","32","100","100","346","346","white","no","xpyriment","legacy","legacy","0","uniform","1","1","m","0","0","0","0","0","150","0","NA","150","150","0","150","150","150","150","0","Fri 27 Nov 2015 19:52:26 CET","Default description","no","mono","no","18","black","Ok","768","legacy","/home/han/Desktop/subject-1971190.csv","xpyriment","Interactive Ising","3.0.2","0","m","space","NA","m","350","13055","NA","350","legacy","experiment","1971190","even","legacy","42229","433376","NA","NA","NA","541766","420320","NA","539810","541412","1620","541766","538309","538305","541411","1620","CogMod 2015 Experiment","31","10729","31","yes","1024"
"2","1600","150","32","100","100","348","348","white","no","xpyriment","legacy","legacy","0","uniform","1","1","m","0","0","0","0","0","151","0","NA","151","151","0","151","151","151","151","0","Fri 27 Nov 2015 19:52:26 CET","Default description","no","mono","no","18","black","Ok","768","legacy","/home/han/Desktop/subject-1971190.csv","xpyriment","Interactive Ising","3.0.2","0","m","space","NA","m","428","13055","NA","428","legacy","experiment","1971190","even","legacy","42229","433376","NA","NA","NA","545594","420320","NA","543557","545161","1620","545594","542054","542050","545160","1620","CogMod 2015 Experiment","32","11157","32","yes","1024"
"2","800","150","8","100","100","348","348","white","no","xpyriment","legacy","legacy","0","uniform","1","1","m","0","0","0","0","0","152","0","NA","152","152","0","152","152","152","152","0","Fri 27 Nov 2015 19:52:26 CET","Default description","no","mono","no","18","black","Ok","768","legacy","/home/han/Desktop/subject-1971190.csv","xpyriment","Interactive Ising","3.0.2","0","m","space","NA","m","349","13055","NA","349","legacy","experiment","1971190","even","legacy","42229","433376","NA","NA","NA","548540","420320","NA","547382","548186","1620","548540","545880","545877","548186","1620","CogMod 2015 Experiment","33","11506","33","yes","1024"
