"Block","Foreperiod","Location","NumRep","acc","accuracy","average_response_time","avg_rt","background","bidi","canvas_backend","clock_backend","color_backend","compensation","coordinates","correct","correct_GetResponse","correct_response","count_Block_1","count_Block_2","count_Block_3","count_Block_4","count_Block_5","count_ClearScreen","count_Feedback","count_Feedback_Final","count_Fixation","count_GetResponse","count_Instructions1","count_LogData","count_PreTrialWait","count_SingleTrial","count_Stimulus","count_experiment","datetime","description","font_bold","font_family","font_italic","font_size","foreground","form_response","height","keyboard_backend","logfile","mouse_backend","opensesame_codename","opensesame_version","repeat_cycle","response","response_Feedback","response_Feedback_Final","response_GetResponse","response_time","response_time_Feedback","response_time_Feedback_Final","response_time_GetResponse","sampler_backend","start","subject_nr","subject_parity","synth_backend","time_Block_1","time_Block_2","time_Block_3","time_Block_4","time_Block_5","time_ClearScreen","time_Feedback","time_Feedback_Final","time_Fixation","time_GetResponse","time_Instructions1","time_LogData","time_PreTrialWait","time_SingleTrial","time_Stimulus","time_experiment","title","total_correct","total_response_time","total_responses","uniform_coordinates","width"
"1","1200","-150","15","100","100","700","700","white","no","xpyriment","legacy","legacy","0","uniform","1","1","z","0","0","0","0","0","0","NA","NA","0","0","0","0","0","0","0","0","11/26/15 13:24:03","Default description","no","mono","no","18","black","Ok","768","legacy","C:/Users/Thomas/Documents/KI/subject-2016346.csv","xpyriment","Interactive Ising","3.0.2","0","z","NA","NA","z","700","NA","NA","700","legacy","experiment","2016346","even","legacy","35900","NA","NA","NA","NA","40050","NA","NA","38116","39333","6738","40050","36598","36588","39333","6738","CogMod 2015 Experiment","1","700","1","yes","1024"
"1","1200","-150","15","100","100","541","541","white","no","xpyriment","legacy","legacy","0","uniform","1","1","z","0","0","0","0","0","1","NA","NA","1","1","0","1","1","1","1","0","11/26/15 13:24:03","Default description","no","mono","no","18","black","Ok","768","legacy","C:/Users/Thomas/Documents/KI/subject-2016346.csv","xpyriment","Interactive Ising","3.0.2","0","z","NA","NA","z","382","NA","NA","382","legacy","experiment","2016346","even","legacy","35900","NA","NA","NA","NA","44004","NA","NA","42385","43604","6738","44004","40867","40848","43603","6738","CogMod 2015 Experiment","2","1082","2","yes","1024"
"1","1200","150","15","100","100","468","468","white","no","xpyriment","legacy","legacy","0","uniform","1","1","m","0","0","0","0","0","2","NA","NA","2","2","0","2","2","2","2","0","11/26/15 13:24:03","Default description","no","mono","no","18","black","Ok","768","legacy","C:/Users/Thomas/Documents/KI/subject-2016346.csv","xpyriment","Interactive Ising","3.0.2","0","m","NA","NA","m","322","NA","NA","322","legacy","experiment","2016346","even","legacy","35900","NA","NA","NA","NA","47773","NA","NA","46222","47439","6738","47773","44704","44686","47439","6738","CogMod 2015 Experiment","3","1404","3","yes","1024"
"1","400","150","15","100","100","457","457","white","no","xpyriment","legacy","legacy","0","uniform","1","1","m","0","0","0","0","0","3","NA","NA","3","3","0","3","3","3","3","0","11/26/15 13:24:03","Default description","no","mono","no","18","black","Ok","768","legacy","C:/Users/Thomas/Documents/KI/subject-2016346.csv","xpyriment","Interactive Ising","3.0.2","0","m","NA","NA","m","425","NA","NA","425","legacy","experiment","2016346","even","legacy","35900","NA","NA","NA","NA","50858","NA","NA","50007","50424","6738","50858","48490","48479","50424","6738","CogMod 2015 Experiment","4","1829","4","yes","1024"
"1","800","-150","15","100","100","422","422","white","no","xpyriment","legacy","legacy","0","uniform","1","1","z","0","0","0","0","0","4","NA","NA","4","4","0","4","4","4","4","0","11/26/15 13:24:03","Default description","no","mono","no","18","black","Ok","768","legacy","C:/Users/Thomas/Documents/KI/subject-2016346.csv","xpyriment","Interactive Ising","3.0.2","0","z","NA","NA","z","284","NA","NA","284","legacy","experiment","2016346","even","legacy","35900","NA","NA","NA","NA","54177","NA","NA","53059","53877","6738","54177","51542","51530","53876","6738","CogMod 2015 Experiment","5","2113","5","yes","1024"
"1","1600","150","15","100","100","400","400","white","no","xpyriment","legacy","legacy","0","uniform","1","1","m","0","0","0","0","0","5","NA","NA","5","5","0","5","5","5","5","0","11/26/15 13:24:03","Default description","no","mono","no","18","black","Ok","768","legacy","C:/Users/Thomas/Documents/KI/subject-2016346.csv","xpyriment","Interactive Ising","3.0.2","0","m","NA","NA","m","292","NA","NA","292","legacy","experiment","2016346","even","legacy","35900","NA","NA","NA","NA","58313","NA","NA","56395","58013","6738","58313","54877","54859","58012","6738","CogMod 2015 Experiment","6","2405","6","yes","1024"
"1","1200","-150","15","100","100","384","384","white","no","xpyriment","legacy","legacy","0","uniform","1","1","z","0","0","0","0","0","6","NA","NA","6","6","0","6","6","6","6","0","11/26/15 13:24:03","Default description","no","mono","no","18","black","Ok","768","legacy","C:/Users/Thomas/Documents/KI/subject-2016346.csv","xpyriment","Interactive Ising","3.0.2","0","z","NA","NA","z","283","NA","NA","283","legacy","experiment","2016346","even","legacy","35900","NA","NA","NA","NA","62083","NA","NA","60564","61783","6738","62083","59046","59029","61782","6738","CogMod 2015 Experiment","7","2688","7","yes","1024"
"1","400","-150","15","100","100","382","382","white","no","xpyriment","legacy","legacy","0","uniform","1","1","z","0","0","0","0","0","7","NA","NA","7","7","0","7","7","7","7","0","11/26/15 13:24:03","Default description","no","mono","no","18","black","Ok","768","legacy","C:/Users/Thomas/Documents/KI/subject-2016346.csv","xpyriment","Interactive Ising","3.0.2","0","z","NA","NA","z","371","NA","NA","371","legacy","experiment","2016346","even","legacy","35900","NA","NA","NA","NA","65101","NA","NA","64301","64718","6738","65101","62785","62769","64718","6738","CogMod 2015 Experiment","8","3059","8","yes","1024"
"1","1600","150","15","100","100","372","372","white","no","xpyriment","legacy","legacy","0","uniform","1","1","m","0","0","0","0","0","8","NA","NA","8","8","0","8","8","8","8","0","11/26/15 13:24:03","Default description","no","mono","no","18","black","Ok","768","legacy","C:/Users/Thomas/Documents/KI/subject-2016346.csv","xpyriment","Interactive Ising","3.0.2","0","m","NA","NA","m","295","NA","NA","295","legacy","experiment","2016346","even","legacy","35900","NA","NA","NA","NA","69270","NA","NA","67336","68954","6738","69271","65818","65793","68954","6738","CogMod 2015 Experiment","9","3354","9","yes","1024"
"1","400","150","15","100","100","368","368","white","no","xpyriment","legacy","legacy","0","uniform","1","1","m","0","0","0","0","0","9","NA","NA","9","9","0","9","9","9","9","0","11/26/15 13:24:03","Default description","no","mono","no","18","black","Ok","768","legacy","C:/Users/Thomas/Documents/KI/subject-2016346.csv","xpyriment","Interactive Ising","3.0.2","0","m","NA","NA","m","335","NA","NA","335","legacy","experiment","2016346","even","legacy","35900","NA","NA","NA","NA","72272","NA","NA","71505","71922","6738","72272","69988","69969","71922","6738","CogMod 2015 Experiment","10","3689","10","yes","1024"
"1","400","150","15","100","100","360","360","white","no","xpyriment","legacy","legacy","0","uniform","1","1","m","0","0","0","0","0","10","NA","NA","10","10","0","10","10","10","10","0","11/26/15 13:24:03","Default description","no","mono","no","18","black","Ok","768","legacy","C:/Users/Thomas/Documents/KI/subject-2016346.csv","xpyriment","Interactive Ising","3.0.2","0","m","NA","NA","m","276","NA","NA","276","legacy","experiment","2016346","even","legacy","35900","NA","NA","NA","NA","75224","NA","NA","74524","74941","6738","75224","73006","72982","74941","6738","CogMod 2015 Experiment","11","3965","11","yes","1024"
"1","800","-150","15","100","100","354","354","white","no","xpyriment","legacy","legacy","0","uniform","1","1","z","0","0","0","0","0","11","NA","NA","11","11","0","11","11","11","11","0","11/26/15 13:24:03","Default description","no","mono","no","18","black","Ok","768","legacy","C:/Users/Thomas/Documents/KI/subject-2016346.csv","xpyriment","Interactive Ising","3.0.2","0","z","NA","NA","z","287","NA","NA","287","legacy","experiment","2016346","even","legacy","35900","NA","NA","NA","NA","78544","NA","NA","77426","78243","6738","78544","75908","75894","78243","6738","CogMod 2015 Experiment","12","4252","12","yes","1024"
"1","1600","-150","15","100","100","348","348","white","no","xpyriment","legacy","legacy","0","uniform","1","1","z","0","0","0","0","0","12","NA","NA","12","12","0","12","12","12","12","0","11/26/15 13:24:03","Default description","no","mono","no","18","black","Ok","768","legacy","C:/Users/Thomas/Documents/KI/subject-2016346.csv","xpyriment","Interactive Ising","3.0.2","0","z","NA","NA","z","277","NA","NA","277","legacy","experiment","2016346","even","legacy","35900","NA","NA","NA","NA","82663","NA","NA","80762","82380","6738","82663","79244","79227","82380","6738","CogMod 2015 Experiment","13","4529","13","yes","1024"
"1","1600","-150","15","100","100","346","346","white","no","xpyriment","legacy","legacy","0","uniform","1","1","z","0","0","0","0","0","13","NA","NA","13","13","0","13","13","13","13","0","11/26/15 13:24:03","Default description","no","mono","no","18","black","Ok","768","legacy","C:/Users/Thomas/Documents/KI/subject-2016346.csv","xpyriment","Interactive Ising","3.0.2","0","z","NA","NA","z","318","NA","NA","318","legacy","experiment","2016346","even","legacy","35900","NA","NA","NA","NA","86832","NA","NA","84881","86499","6738","86833","83364","83343","86499","6738","CogMod 2015 Experiment","14","4847","14","yes","1024"
"1","1200","-150","15","100","100","344","344","white","no","xpyriment","legacy","legacy","0","uniform","1","1","z","0","0","0","0","0","14","NA","NA","14","14","0","14","14","14","14","0","11/26/15 13:24:03","Default description","no","mono","no","18","black","Ok","768","legacy","C:/Users/Thomas/Documents/KI/subject-2016346.csv","xpyriment","Interactive Ising","3.0.2","0","z","NA","NA","z","324","NA","NA","324","legacy","experiment","2016346","even","legacy","35900","NA","NA","NA","NA","90618","NA","NA","89067","90285","6738","90618","87550","87529","90285","6738","CogMod 2015 Experiment","15","5171","15","yes","1024"
"1","1200","150","15","100","100","340","340","white","no","xpyriment","legacy","legacy","0","uniform","1","1","m","0","0","0","0","0","15","NA","NA","15","15","0","15","15","15","15","0","11/26/15 13:24:03","Default description","no","mono","no","18","black","Ok","768","legacy","C:/Users/Thomas/Documents/KI/subject-2016346.csv","xpyriment","Interactive Ising","3.0.2","0","m","NA","NA","m","280","NA","NA","280","legacy","experiment","2016346","even","legacy","35900","NA","NA","NA","NA","94437","NA","NA","92920","94137","6738","94437","91402","91382","94137","6738","CogMod 2015 Experiment","16","5451","16","yes","1024"
"1","1200","-150","15","100","100","336","336","white","no","xpyriment","legacy","legacy","0","uniform","1","1","z","0","0","0","0","0","16","NA","NA","16","16","0","16","16","16","16","0","11/26/15 13:24:03","Default description","no","mono","no","18","black","Ok","768","legacy","C:/Users/Thomas/Documents/KI/subject-2016346.csv","xpyriment","Interactive Ising","3.0.2","0","z","NA","NA","z","271","NA","NA","271","legacy","experiment","2016346","even","legacy","35900","NA","NA","NA","NA","98174","NA","NA","96656","97874","6738","98174","95138","95128","97874","6738","CogMod 2015 Experiment","17","5722","17","yes","1024"
"1","1200","-150","15","100","100","330","330","white","no","xpyriment","legacy","legacy","0","uniform","1","1","z","0","0","0","0","0","17","NA","NA","17","17","0","17","17","17","17","0","11/26/15 13:24:03","Default description","no","mono","no","18","black","Ok","768","legacy","C:/Users/Thomas/Documents/KI/subject-2016346.csv","xpyriment","Interactive Ising","3.0.2","0","z","NA","NA","z","231","NA","NA","231","legacy","experiment","2016346","even","legacy","35900","NA","NA","NA","NA","101859","NA","NA","100392","101610","6738","101860","98874","98857","101609","6738","CogMod 2015 Experiment","18","5953","18","yes","1024"
"1","800","150","15","100","100","330","330","white","no","xpyriment","legacy","legacy","0","uniform","1","1","m","0","0","0","0","0","18","NA","NA","18","18","0","18","18","18","18","0","11/26/15 13:24:03","Default description","no","mono","no","18","black","Ok","768","legacy","C:/Users/Thomas/Documents/KI/subject-2016346.csv","xpyriment","Interactive Ising","3.0.2","0","m","NA","NA","m","323","NA","NA","323","legacy","experiment","2016346","even","legacy","35900","NA","NA","NA","NA","105212","NA","NA","104061","104878","6738","105212","102543","102527","104878","6738","CogMod 2015 Experiment","19","6276","19","yes","1024"
"1","1600","-150","15","100","100","327","327","white","no","xpyriment","legacy","legacy","0","uniform","1","1","z","0","0","0","0","0","19","NA","NA","19","19","0","19","19","19","19","0","11/26/15 13:24:03","Default description","no","mono","no","18","black","Ok","768","legacy","C:/Users/Thomas/Documents/KI/subject-2016346.csv","xpyriment","Interactive Ising","3.0.2","0","z","NA","NA","z","266","NA","NA","266","legacy","experiment","2016346","even","legacy","35900","NA","NA","NA","NA","109314","NA","NA","107413","109031","6738","109314","105895","105875","109031","6738","CogMod 2015 Experiment","20","6542","20","yes","1024"
"1","1600","150","15","100","100","325","325","white","no","xpyriment","legacy","legacy","0","uniform","1","1","m","0","0","0","0","0","20","NA","NA","20","20","0","20","20","20","20","0","11/26/15 13:24:03","Default description","no","mono","no","18","black","Ok","768","legacy","C:/Users/Thomas/Documents/KI/subject-2016346.csv","xpyriment","Interactive Ising","3.0.2","0","m","NA","NA","m","292","NA","NA","292","legacy","experiment","2016346","even","legacy","35900","NA","NA","NA","NA","113451","NA","NA","111532","113150","6738","113451","110015","109995","113150","6738","CogMod 2015 Experiment","21","6834","21","yes","1024"
"1","1200","150","15","100","100","324","324","white","no","xpyriment","legacy","legacy","0","uniform","1","1","m","0","0","0","0","0","21","NA","NA","21","21","0","21","21","21","21","0","11/26/15 13:24:03","Default description","no","mono","no","18","black","Ok","768","legacy","C:/Users/Thomas/Documents/KI/subject-2016346.csv","xpyriment","Interactive Ising","3.0.2","0","m","NA","NA","m","299","NA","NA","299","legacy","experiment","2016346","even","legacy","35900","NA","NA","NA","NA","117187","NA","NA","115653","116870","6738","117187","114135","114126","116870","6738","CogMod 2015 Experiment","22","7133","22","yes","1024"
"1","1600","-150","15","100","100","321","321","white","no","xpyriment","legacy","legacy","0","uniform","1","1","z","0","0","0","0","0","22","NA","NA","22","22","0","22","22","22","22","0","11/26/15 13:24:03","Default description","no","mono","no","18","black","Ok","768","legacy","C:/Users/Thomas/Documents/KI/subject-2016346.csv","xpyriment","Interactive Ising","3.0.2","0","z","NA","NA","z","259","NA","NA","259","legacy","experiment","2016346","even","legacy","35900","NA","NA","NA","NA","121273","NA","NA","119388","121006","6738","121273","117871","117858","121006","6738","CogMod 2015 Experiment","23","7392","23","yes","1024"
"1","400","150","15","100","100","323","323","white","no","xpyriment","legacy","legacy","0","uniform","1","1","m","0","0","0","0","0","23","NA","NA","23","23","0","23","23","23","23","0","11/26/15 13:24:03","Default description","no","mono","no","18","black","Ok","768","legacy","C:/Users/Thomas/Documents/KI/subject-2016346.csv","xpyriment","Interactive Ising","3.0.2","0","m","NA","NA","m","379","NA","NA","379","legacy","experiment","2016346","even","legacy","35900","NA","NA","NA","NA","124358","NA","NA","123539","123958","6738","124358","121973","121952","123958","6738","CogMod 2015 Experiment","24","7771","24","yes","1024"
"1","1200","150","15","100","100","323","323","white","no","xpyriment","legacy","legacy","0","uniform","1","1","m","0","0","0","0","0","24","NA","NA","24","24","0","24","24","24","24","0","11/26/15 13:24:03","Default description","no","mono","no","18","black","Ok","768","legacy","C:/Users/Thomas/Documents/KI/subject-2016346.csv","xpyriment","Interactive Ising","3.0.2","0","m","NA","NA","m","311","NA","NA","311","legacy","experiment","2016346","even","legacy","35900","NA","NA","NA","NA","128310","NA","NA","126776","127994","6738","128311","125259","125242","127994","6738","CogMod 2015 Experiment","25","8082","25","yes","1024"
"1","1600","-150","15","100","100","320","320","white","no","xpyriment","legacy","legacy","0","uniform","1","1","z","0","0","0","0","0","25","NA","NA","25","25","0","25","25","25","25","0","11/26/15 13:24:03","Default description","no","mono","no","18","black","Ok","768","legacy","C:/Users/Thomas/Documents/KI/subject-2016346.csv","xpyriment","Interactive Ising","3.0.2","0","z","NA","NA","z","254","NA","NA","254","legacy","experiment","2016346","even","legacy","35900","NA","NA","NA","NA","132431","NA","NA","130545","132164","6738","132431","129028","129018","132164","6738","CogMod 2015 Experiment","26","8336","26","yes","1024"
"1","800","150","15","100","100","319","319","white","no","xpyriment","legacy","legacy","0","uniform","1","1","m","0","0","0","0","0","26","NA","NA","26","26","0","26","26","26","26","0","11/26/15 13:24:03","Default description","no","mono","no","18","black","Ok","768","legacy","C:/Users/Thomas/Documents/KI/subject-2016346.csv","xpyriment","Interactive Ising","3.0.2","0","m","NA","NA","m","278","NA","NA","278","legacy","experiment","2016346","even","legacy","35900","NA","NA","NA","NA","135783","NA","NA","134666","135483","6738","135783","133131","133114","135483","6738","CogMod 2015 Experiment","27","8614","27","yes","1024"
"1","400","-150","15","100","100","319","319","white","no","xpyriment","legacy","legacy","0","uniform","1","1","z","0","0","0","0","0","27","NA","NA","27","27","0","27","27","27","27","0","11/26/15 13:24:03","Default description","no","mono","no","18","black","Ok","768","legacy","C:/Users/Thomas/Documents/KI/subject-2016346.csv","xpyriment","Interactive Ising","3.0.2","0","z","NA","NA","z","335","NA","NA","335","legacy","experiment","2016346","even","legacy","35900","NA","NA","NA","NA","138768","NA","NA","138001","138418","6738","138768","136483","136460","138418","6738","CogMod 2015 Experiment","28","8949","28","yes","1024"
"1","800","150","15","100","100","316","316","white","no","xpyriment","legacy","legacy","0","uniform","1","1","m","0","0","0","0","0","28","NA","NA","28","28","0","28","28","28","28","0","11/26/15 13:24:03","Default description","no","mono","no","18","black","Ok","768","legacy","C:/Users/Thomas/Documents/KI/subject-2016346.csv","xpyriment","Interactive Ising","3.0.2","0","m","NA","NA","m","230","NA","NA","230","legacy","experiment","2016346","even","legacy","35900","NA","NA","NA","NA","142053","NA","NA","140986","141803","6738","142054","139468","139454","141803","6738","CogMod 2015 Experiment","29","9179","29","yes","1024"
"1","800","-150","15","100","100","315","315","white","no","xpyriment","legacy","legacy","0","uniform","1","1","z","0","0","0","0","0","29","NA","NA","29","29","0","29","29","29","29","0","11/26/15 13:24:03","Default description","no","mono","no","18","black","Ok","768","legacy","C:/Users/Thomas/Documents/KI/subject-2016346.csv","xpyriment","Interactive Ising","3.0.2","0","z","NA","NA","z","288","NA","NA","288","legacy","experiment","2016346","even","legacy","35900","NA","NA","NA","NA","145389","NA","NA","144271","145089","6738","145389","142754","142737","145089","6738","CogMod 2015 Experiment","30","9467","30","yes","1024"
"1","800","150","15","100","100","313","313","white","no","xpyriment","legacy","legacy","0","uniform","1","1","m","0","0","0","0","0","30","NA","NA","30","30","0","30","30","30","30","0","11/26/15 13:24:03","Default description","no","mono","no","18","black","Ok","768","legacy","C:/Users/Thomas/Documents/KI/subject-2016346.csv","xpyriment","Interactive Ising","3.0.2","0","m","NA","NA","m","250","NA","NA","250","legacy","experiment","2016346","even","legacy","35900","NA","NA","NA","NA","148675","NA","NA","147590","148408","6738","148675","146073","146059","148408","6738","CogMod 2015 Experiment","31","9717","31","yes","1024"
"1","800","-150","15","100","100","311","311","white","no","xpyriment","legacy","legacy","0","uniform","1","1","z","0","0","0","0","0","31","NA","NA","31","31","0","31","31","31","31","0","11/26/15 13:24:03","Default description","no","mono","no","18","black","Ok","768","legacy","C:/Users/Thomas/Documents/KI/subject-2016346.csv","xpyriment","Interactive Ising","3.0.2","0","z","NA","NA","z","258","NA","NA","258","legacy","experiment","2016346","even","legacy","35900","NA","NA","NA","NA","151977","NA","NA","150893","151711","6738","151977","149376","149361","151710","6738","CogMod 2015 Experiment","32","9975","32","yes","1024"
"1","1200","-150","15","100","100","309","309","white","no","xpyriment","legacy","legacy","0","uniform","1","1","z","0","0","0","0","0","32","NA","NA","32","32","0","32","32","32","32","0","11/26/15 13:24:03","Default description","no","mono","no","18","black","Ok","768","legacy","C:/Users/Thomas/Documents/KI/subject-2016346.csv","xpyriment","Interactive Ising","3.0.2","0","z","NA","NA","z","235","NA","NA","235","legacy","experiment","2016346","even","legacy","35900","NA","NA","NA","NA","155680","NA","NA","154212","155430","6738","155680","152694","152678","155429","6738","CogMod 2015 Experiment","33","10210","33","yes","1024"
"1","400","150","15","100","100","308","308","white","no","xpyriment","legacy","legacy","0","uniform","1","1","m","0","0","0","0","0","33","NA","NA","33","33","0","33","33","33","33","0","11/26/15 13:24:03","Default description","no","mono","no","18","black","Ok","768","legacy","C:/Users/Thomas/Documents/KI/subject-2016346.csv","xpyriment","Interactive Ising","3.0.2","0","m","NA","NA","m","295","NA","NA","295","legacy","experiment","2016346","even","legacy","35900","NA","NA","NA","NA","158598","NA","NA","157881","158298","6738","158598","156363","156347","158298","6738","CogMod 2015 Experiment","34","10505","34","yes","1024"
"1","1600","-150","15","100","100","308","308","white","no","xpyriment","legacy","legacy","0","uniform","1","1","z","0","0","0","0","0","34","NA","NA","34","34","0","34","34","34","34","0","11/26/15 13:24:03","Default description","no","mono","no","18","black","Ok","768","legacy","C:/Users/Thomas/Documents/KI/subject-2016346.csv","xpyriment","Interactive Ising","3.0.2","0","z","NA","NA","z","286","NA","NA","286","legacy","experiment","2016346","even","legacy","35900","NA","NA","NA","NA","162767","NA","NA","160850","162467","6738","162768","159332","159315","162467","6738","CogMod 2015 Experiment","35","10791","35","yes","1024"
"1","1600","150","15","100","100","306","306","white","no","xpyriment","legacy","legacy","0","uniform","1","1","m","0","0","0","0","0","35","NA","NA","35","35","0","35","35","35","35","0","11/26/15 13:24:03","Default description","no","mono","no","18","black","Ok","768","legacy","C:/Users/Thomas/Documents/KI/subject-2016346.csv","xpyriment","Interactive Ising","3.0.2","0","m","NA","NA","m","230","NA","NA","230","legacy","experiment","2016346","even","legacy","35900","NA","NA","NA","NA","166854","NA","NA","164986","166604","6738","166854","163468","163454","166604","6738","CogMod 2015 Experiment","36","11021","36","yes","1024"
"1","800","150","15","100","100","306","306","white","no","xpyriment","legacy","legacy","0","uniform","1","1","m","0","0","0","0","0","36","NA","NA","36","36","0","36","36","36","36","0","11/26/15 13:24:03","Default description","no","mono","no","18","black","Ok","768","legacy","C:/Users/Thomas/Documents/KI/subject-2016346.csv","xpyriment","Interactive Ising","3.0.2","0","m","NA","NA","m","302","NA","NA","302","legacy","experiment","2016346","even","legacy","35900","NA","NA","NA","NA","170240","NA","NA","169106","169923","6738","170240","167588","167573","169923","6738","CogMod 2015 Experiment","37","11323","37","yes","1024"
"1","1200","150","15","97.3684210526","97.3684210526","306","306","white","no","xpyriment","legacy","legacy","0","uniform","0","0","m","0","0","0","0","0","37","NA","NA","37","37","0","37","37","37","37","0","11/26/15 13:24:03","Default description","no","mono","no","18","black","Ok","768","legacy","C:/Users/Thomas/Documents/KI/subject-2016346.csv","xpyriment","Interactive Ising","3.0.2","0","z","NA","NA","z","320","NA","NA","320","legacy","experiment","2016346","even","legacy","35900","NA","NA","NA","NA","174142","NA","NA","172591","173809","6738","174142","171074","171054","173809","6738","CogMod 2015 Experiment","37","11643","38","yes","1024"
"1","800","150","15","97.4358974359","97.4358974359","307","307","white","no","xpyriment","legacy","legacy","0","uniform","1","1","m","0","0","0","0","0","38","NA","NA","38","38","0","38","38","38","38","0","11/26/15 13:24:03","Default description","no","mono","no","18","black","Ok","768","legacy","C:/Users/Thomas/Documents/KI/subject-2016346.csv","xpyriment","Interactive Ising","3.0.2","0","m","NA","NA","m","356","NA","NA","356","legacy","experiment","2016346","even","legacy","35900","NA","NA","NA","NA","177628","NA","NA","176444","177261","6738","177628","174928","174908","177261","6738","CogMod 2015 Experiment","38","11999","39","yes","1024"
"1","1600","150","15","97.5","97.5","307","307","white","no","xpyriment","legacy","legacy","0","uniform","1","1","m","0","0","0","0","0","39","NA","NA","39","39","0","39","39","39","39","0","11/26/15 13:24:03","Default description","no","mono","no","18","black","Ok","768","legacy","C:/Users/Thomas/Documents/KI/subject-2016346.csv","xpyriment","Interactive Ising","3.0.2","0","m","NA","NA","m","298","NA","NA","298","legacy","experiment","2016346","even","legacy","35900","NA","NA","NA","NA","181764","NA","NA","179829","181447","6738","181764","178312","178301","181447","6738","CogMod 2015 Experiment","39","12297","40","yes","1024"
"1","1200","150","15","97.5609756098","97.5609756098","306","306","white","no","xpyriment","legacy","legacy","0","uniform","1","1","m","0","0","0","0","0","40","NA","NA","40","40","0","40","40","40","40","0","11/26/15 13:24:03","Default description","no","mono","no","18","black","Ok","768","legacy","C:/Users/Thomas/Documents/KI/subject-2016346.csv","xpyriment","Interactive Ising","3.0.2","0","m","NA","NA","m","257","NA","NA","257","legacy","experiment","2016346","even","legacy","35900","NA","NA","NA","NA","185484","NA","NA","183999","185217","6738","185484","182481","182455","185217","6738","CogMod 2015 Experiment","40","12554","41","yes","1024"
"1","1200","150","15","97.619047619","97.619047619","305","305","white","no","xpyriment","legacy","legacy","0","uniform","1","1","m","0","0","0","0","0","41","NA","NA","41","41","0","41","41","41","41","0","11/26/15 13:24:03","Default description","no","mono","no","18","black","Ok","768","legacy","C:/Users/Thomas/Documents/KI/subject-2016346.csv","xpyriment","Interactive Ising","3.0.2","0","m","NA","NA","m","281","NA","NA","281","legacy","experiment","2016346","even","legacy","35900","NA","NA","NA","NA","189236","NA","NA","187718","188936","6738","189236","186201","186187","188936","6738","CogMod 2015 Experiment","41","12835","42","yes","1024"
"1","400","150","15","97.6744186047","97.6744186047","305","305","white","no","xpyriment","legacy","legacy","0","uniform","1","1","m","0","0","0","0","0","42","NA","NA","42","42","0","42","42","42","42","0","11/26/15 13:24:03","Default description","no","mono","no","18","black","Ok","768","legacy","C:/Users/Thomas/Documents/KI/subject-2016346.csv","xpyriment","Interactive Ising","3.0.2","0","m","NA","NA","m","306","NA","NA","306","legacy","experiment","2016346","even","legacy","35900","NA","NA","NA","NA","192188","NA","NA","191454","191871","6738","192188","189936","189913","191871","6738","CogMod 2015 Experiment","42","13141","43","yes","1024"
"1","800","150","15","97.7272727273","97.7272727273","305","305","white","no","xpyriment","legacy","legacy","0","uniform","1","1","m","0","0","0","0","0","43","NA","NA","43","43","0","43","43","43","43","0","11/26/15 13:24:03","Default description","no","mono","no","18","black","Ok","768","legacy","C:/Users/Thomas/Documents/KI/subject-2016346.csv","xpyriment","Interactive Ising","3.0.2","0","m","NA","NA","m","298","NA","NA","298","legacy","experiment","2016346","even","legacy","35900","NA","NA","NA","NA","195523","NA","NA","194389","195207","6738","195523","192872","192860","195206","6738","CogMod 2015 Experiment","43","13439","44","yes","1024"
"1","800","-150","15","97.7777777778","97.7777777778","305","305","white","no","xpyriment","legacy","legacy","0","uniform","1","1","z","0","0","0","0","0","44","NA","NA","44","44","0","44","44","44","44","0","11/26/15 13:24:03","Default description","no","mono","no","18","black","Ok","768","legacy","C:/Users/Thomas/Documents/KI/subject-2016346.csv","xpyriment","Interactive Ising","3.0.2","0","z","NA","NA","z","307","NA","NA","307","legacy","experiment","2016346","even","legacy","35900","NA","NA","NA","NA","198859","NA","NA","197725","198542","6738","198859","196207","196188","198542","6738","CogMod 2015 Experiment","44","13746","45","yes","1024"
"1","400","-150","15","97.8260869565","97.8260869565","306","306","white","no","xpyriment","legacy","legacy","0","uniform","1","1","z","0","0","0","0","0","45","NA","NA","45","45","0","45","45","45","45","0","11/26/15 13:24:03","Default description","no","mono","no","18","black","Ok","768","legacy","C:/Users/Thomas/Documents/KI/subject-2016346.csv","xpyriment","Interactive Ising","3.0.2","0","z","NA","NA","z","362","NA","NA","362","legacy","experiment","2016346","even","legacy","35900","NA","NA","NA","NA","201895","NA","NA","201095","201512","6738","201895","199576","199555","201511","6738","CogMod 2015 Experiment","45","14108","46","yes","1024"
"1","1600","-150","15","97.8723404255","97.8723404255","307","307","white","no","xpyriment","legacy","legacy","0","uniform","1","1","z","0","0","0","0","0","46","NA","NA","46","46","0","46","46","46","46","0","11/26/15 13:24:03","Default description","no","mono","no","18","black","Ok","768","legacy","C:/Users/Thomas/Documents/KI/subject-2016346.csv","xpyriment","Interactive Ising","3.0.2","0","z","NA","NA","z","334","NA","NA","334","legacy","experiment","2016346","even","legacy","35900","NA","NA","NA","NA","206081","NA","NA","204113","205731","6738","206081","202595","202584","205731","6738","CogMod 2015 Experiment","46","14442","47","yes","1024"
"1","1200","-150","15","97.9166666667","97.9166666667","307","307","white","no","xpyriment","legacy","legacy","0","uniform","1","1","z","0","0","0","0","0","47","NA","NA","47","47","0","47","47","47","47","0","11/26/15 13:24:03","Default description","no","mono","no","18","black","Ok","768","legacy","C:/Users/Thomas/Documents/KI/subject-2016346.csv","xpyriment","Interactive Ising","3.0.2","0","z","NA","NA","z","324","NA","NA","324","legacy","experiment","2016346","even","legacy","35900","NA","NA","NA","NA","209867","NA","NA","208316","209533","6738","209867","206798","206773","209533","6738","CogMod 2015 Experiment","47","14766","48","yes","1024"
"1","800","150","15","97.9591836735","97.9591836735","309","309","white","no","xpyriment","legacy","legacy","0","uniform","1","1","m","0","0","0","0","0","48","NA","NA","48","48","0","48","48","48","48","0","11/26/15 13:24:03","Default description","no","mono","no","18","black","Ok","768","legacy","C:/Users/Thomas/Documents/KI/subject-2016346.csv","xpyriment","Interactive Ising","3.0.2","0","m","NA","NA","m","378","NA","NA","378","legacy","experiment","2016346","even","legacy","35900","NA","NA","NA","NA","213302","NA","NA","212101","212919","6738","213302","210584","210562","212919","6738","CogMod 2015 Experiment","48","15144","49","yes","1024"
"1","400","-150","15","98","98","310","310","white","no","xpyriment","legacy","legacy","0","uniform","1","1","z","0","0","0","0","0","49","NA","NA","49","49","0","49","49","49","49","0","11/26/15 13:24:03","Default description","no","mono","no","18","black","Ok","768","legacy","C:/Users/Thomas/Documents/KI/subject-2016346.csv","xpyriment","Interactive Ising","3.0.2","0","z","NA","NA","z","368","NA","NA","368","legacy","experiment","2016346","even","legacy","35900","NA","NA","NA","NA","216321","NA","NA","215520","215937","6738","216321","214003","213979","215937","6738","CogMod 2015 Experiment","49","15512","50","yes","1024"
"1","1200","150","15","98.0392156863","98.0392156863","309","309","white","no","xpyriment","legacy","legacy","0","uniform","1","1","m","0","0","0","0","0","50","NA","NA","50","50","0","50","50","50","50","0","11/26/15 13:24:03","Default description","no","mono","no","18","black","Ok","768","legacy","C:/Users/Thomas/Documents/KI/subject-2016346.csv","xpyriment","Interactive Ising","3.0.2","0","m","NA","NA","m","273","NA","NA","273","legacy","experiment","2016346","even","legacy","35900","NA","NA","NA","NA","220124","NA","NA","218623","219841","6738","220124","217105","217095","219841","6738","CogMod 2015 Experiment","50","15785","51","yes","1024"
"1","400","150","15","98.0769230769","98.0769230769","309","309","white","no","xpyriment","legacy","legacy","0","uniform","1","1","m","0","0","0","0","0","51","NA","NA","51","51","0","51","51","51","51","0","11/26/15 13:24:03","Default description","no","mono","no","18","black","Ok","768","legacy","C:/Users/Thomas/Documents/KI/subject-2016346.csv","xpyriment","Interactive Ising","3.0.2","0","m","NA","NA","m","314","NA","NA","314","legacy","experiment","2016346","even","legacy","35900","NA","NA","NA","NA","223076","NA","NA","222326","222743","6738","223076","220808","220795","222742","6738","CogMod 2015 Experiment","51","16099","52","yes","1024"
"1","1200","-150","15","98.1132075472","98.1132075472","310","310","white","no","xpyriment","legacy","legacy","0","uniform","1","1","z","0","0","0","0","0","52","NA","NA","52","52","0","52","52","52","52","0","11/26/15 13:24:03","Default description","no","mono","no","18","black","Ok","768","legacy","C:/Users/Thomas/Documents/KI/subject-2016346.csv","xpyriment","Interactive Ising","3.0.2","0","z","NA","NA","z","337","NA","NA","337","legacy","experiment","2016346","even","legacy","35900","NA","NA","NA","NA","226878","NA","NA","225311","226528","6738","226878","223793","223770","226528","6738","CogMod 2015 Experiment","52","16436","53","yes","1024"
"1","1200","150","15","98.1481481481","98.1481481481","311","311","white","no","xpyriment","legacy","legacy","0","uniform","1","1","m","0","0","0","0","0","53","NA","NA","53","53","0","53","53","53","53","0","11/26/15 13:24:03","Default description","no","mono","no","18","black","Ok","768","legacy","C:/Users/Thomas/Documents/KI/subject-2016346.csv","xpyriment","Interactive Ising","3.0.2","0","m","NA","NA","m","358","NA","NA","358","legacy","experiment","2016346","even","legacy","35900","NA","NA","NA","NA","230697","NA","NA","229113","230331","6738","230697","227597","227575","230331","6738","CogMod 2015 Experiment","53","16794","54","yes","1024"
"1","1600","150","15","98.1818181818","98.1818181818","310","310","white","no","xpyriment","legacy","legacy","0","uniform","1","1","m","0","0","0","0","0","54","NA","NA","54","54","0","54","54","54","54","0","11/26/15 13:24:03","Default description","no","mono","no","18","black","Ok","768","legacy","C:/Users/Thomas/Documents/KI/subject-2016346.csv","xpyriment","Interactive Ising","3.0.2","0","m","NA","NA","m","284","NA","NA","284","legacy","experiment","2016346","even","legacy","35900","NA","NA","NA","NA","234817","NA","NA","232899","234517","6738","234817","231381","231368","234516","6738","CogMod 2015 Experiment","54","17078","55","yes","1024"
"1","400","-150","15","98.2142857143","98.2142857143","311","311","white","no","xpyriment","legacy","legacy","0","uniform","1","1","z","0","0","0","0","0","55","NA","NA","55","55","0","55","55","55","55","0","11/26/15 13:24:03","Default description","no","mono","no","18","black","Ok","768","legacy","C:/Users/Thomas/Documents/KI/subject-2016346.csv","xpyriment","Interactive Ising","3.0.2","0","z","NA","NA","z","339","NA","NA","339","legacy","experiment","2016346","even","legacy","35900","NA","NA","NA","NA","237819","NA","NA","237052","237470","6738","237820","235534","235511","237469","6738","CogMod 2015 Experiment","55","17417","56","yes","1024"
"1","800","-150","15","98.2456140351","98.2456140351","311","311","white","no","xpyriment","legacy","legacy","0","uniform","1","1","z","0","0","0","0","0","56","NA","NA","56","56","0","56","56","56","56","0","11/26/15 13:24:03","Default description","no","mono","no","18","black","Ok","768","legacy","C:/Users/Thomas/Documents/KI/subject-2016346.csv","xpyriment","Interactive Ising","3.0.2","0","z","NA","NA","z","363","NA","NA","363","legacy","experiment","2016346","even","legacy","35900","NA","NA","NA","NA","241222","NA","NA","240021","240838","6738","241222","238503","238487","240838","6738","CogMod 2015 Experiment","56","17780","57","yes","1024"
"1","1600","-150","15","98.275862069","98.275862069","312","312","white","no","xpyriment","legacy","legacy","0","uniform","1","1","z","0","0","0","0","0","57","NA","NA","57","57","0","57","57","57","57","0","11/26/15 13:24:03","Default description","no","mono","no","18","black","Ok","768","legacy","C:/Users/Thomas/Documents/KI/subject-2016346.csv","xpyriment","Interactive Ising","3.0.2","0","z","NA","NA","z","319","NA","NA","319","legacy","experiment","2016346","even","legacy","35900","NA","NA","NA","NA","245391","NA","NA","243440","245058","6738","245391","241922","241910","245057","6738","CogMod 2015 Experiment","57","18099","58","yes","1024"
"1","800","150","15","98.3050847458","98.3050847458","312","312","white","no","xpyriment","legacy","legacy","0","uniform","1","1","m","0","0","0","0","0","58","NA","NA","58","58","0","58","58","58","58","0","11/26/15 13:24:03","Default description","no","mono","no","18","black","Ok","768","legacy","C:/Users/Thomas/Documents/KI/subject-2016346.csv","xpyriment","Interactive Ising","3.0.2","0","m","NA","NA","m","326","NA","NA","326","legacy","experiment","2016346","even","legacy","35900","NA","NA","NA","NA","248776","NA","NA","247626","248443","6738","248776","246108","246087","248443","6738","CogMod 2015 Experiment","58","18425","59","yes","1024"
"1","400","-150","15","98.3333333333","98.3333333333","312","312","white","no","xpyriment","legacy","legacy","0","uniform","1","1","z","0","0","0","0","0","59","NA","NA","59","59","0","59","59","59","59","0","11/26/15 13:24:03","Default description","no","mono","no","18","black","Ok","768","legacy","C:/Users/Thomas/Documents/KI/subject-2016346.csv","xpyriment","Interactive Ising","3.0.2","0","z","NA","NA","z","316","NA","NA","316","legacy","experiment","2016346","even","legacy","35900","NA","NA","NA","NA","251778","NA","NA","251028","251445","6738","251778","249510","249500","251445","6738","CogMod 2015 Experiment","59","18741","60","yes","1024"
"1","400","-150","15","98.3606557377","98.3606557377","312","312","white","no","xpyriment","legacy","legacy","0","uniform","1","1","z","0","0","0","0","0","60","NA","NA","60","60","0","60","60","60","60","0","11/26/15 13:24:03","Default description","no","mono","no","18","black","Ok","768","legacy","C:/Users/Thomas/Documents/KI/subject-2016346.csv","xpyriment","Interactive Ising","3.0.2","0","z","NA","NA","z","340","NA","NA","340","legacy","experiment","2016346","even","legacy","35900","NA","NA","NA","NA","254748","NA","NA","253981","254398","6738","254748","252462","252451","254398","6738","CogMod 2015 Experiment","60","19081","61","yes","1024"
"1","1600","150","15","98.3870967742","98.3870967742","312","312","white","no","xpyriment","legacy","legacy","0","uniform","1","1","m","0","0","0","0","0","61","NA","NA","61","61","0","61","61","61","61","0","11/26/15 13:24:03","Default description","no","mono","no","18","black","Ok","768","legacy","C:/Users/Thomas/Documents/KI/subject-2016346.csv","xpyriment","Interactive Ising","3.0.2","0","m","NA","NA","m","292","NA","NA","292","legacy","experiment","2016346","even","legacy","35900","NA","NA","NA","NA","259017","NA","NA","257099","258717","6738","259017","255584","255558","258717","6738","CogMod 2015 Experiment","61","19373","62","yes","1024"
"1","1600","150","15","98.4126984127","98.4126984127","312","312","white","no","xpyriment","legacy","legacy","0","uniform","1","1","m","0","0","0","0","0","62","NA","NA","62","62","0","62","62","62","62","0","11/26/15 13:24:03","Default description","no","mono","no","18","black","Ok","768","legacy","C:/Users/Thomas/Documents/KI/subject-2016346.csv","xpyriment","Interactive Ising","3.0.2","0","m","NA","NA","m","331","NA","NA","331","legacy","experiment","2016346","even","legacy","35900","NA","NA","NA","NA","263220","NA","NA","261252","262870","6738","263220","259734","259717","262870","6738","CogMod 2015 Experiment","62","19704","63","yes","1024"
"1","400","-150","15","98.4375","98.4375","313","313","white","no","xpyriment","legacy","legacy","0","uniform","1","1","z","0","0","0","0","0","63","NA","NA","63","63","0","63","63","63","63","0","11/26/15 13:24:03","Default description","no","mono","no","18","black","Ok","768","legacy","C:/Users/Thomas/Documents/KI/subject-2016346.csv","xpyriment","Interactive Ising","3.0.2","0","z","NA","NA","z","370","NA","NA","370","legacy","experiment","2016346","even","legacy","35900","NA","NA","NA","NA","266238","NA","NA","265447","265855","6738","266238","263920","263904","265855","6738","CogMod 2015 Experiment","63","20074","64","yes","1024"
"1","800","150","15","98.4615384615","98.4615384615","313","313","white","no","xpyriment","legacy","legacy","0","uniform","1","1","m","0","0","0","0","0","64","NA","NA","64","64","0","64","64","64","64","0","11/26/15 13:24:03","Default description","no","mono","no","18","black","Ok","768","legacy","C:/Users/Thomas/Documents/KI/subject-2016346.csv","xpyriment","Interactive Ising","3.0.2","0","m","NA","NA","m","293","NA","NA","293","legacy","experiment","2016346","even","legacy","35900","NA","NA","NA","NA","269624","NA","NA","268507","269324","6738","269624","266989","266965","269324","6738","CogMod 2015 Experiment","64","20367","65","yes","1024"
"1","1200","-150","15","98.4848484848","98.4848484848","312","312","white","no","xpyriment","legacy","legacy","0","uniform","1","1","z","0","0","0","0","0","65","NA","NA","65","65","0","65","65","65","65","0","11/26/15 13:24:03","Default description","no","mono","no","18","black","Ok","768","legacy","C:/Users/Thomas/Documents/KI/subject-2016346.csv","xpyriment","Interactive Ising","3.0.2","0","z","NA","NA","z","252","NA","NA","252","legacy","experiment","2016346","even","legacy","35900","NA","NA","NA","NA","273344","NA","NA","271860","273077","6738","273344","270341","270318","273077","6738","CogMod 2015 Experiment","65","20619","66","yes","1024"
"1","400","150","15","98.5074626866","98.5074626866","312","312","white","no","xpyriment","legacy","legacy","0","uniform","1","1","m","0","0","0","0","0","66","NA","NA","66","66","0","66","66","66","66","0","11/26/15 13:24:03","Default description","no","mono","no","18","black","Ok","768","legacy","C:/Users/Thomas/Documents/KI/subject-2016346.csv","xpyriment","Interactive Ising","3.0.2","0","m","NA","NA","m","326","NA","NA","326","legacy","experiment","2016346","even","legacy","35900","NA","NA","NA","NA","276312","NA","NA","275562","275979","6738","276312","274044","274018","275979","6738","CogMod 2015 Experiment","66","20945","67","yes","1024"
"1","400","150","15","98.5294117647","98.5294117647","312","312","white","no","xpyriment","legacy","legacy","0","uniform","1","1","m","0","0","0","0","0","67","NA","NA","67","67","0","67","67","67","67","0","11/26/15 13:24:03","Default description","no","mono","no","18","black","Ok","768","legacy","C:/Users/Thomas/Documents/KI/subject-2016346.csv","xpyriment","Interactive Ising","3.0.2","0","m","NA","NA","m","312","NA","NA","312","legacy","experiment","2016346","even","legacy","35900","NA","NA","NA","NA","279414","NA","NA","278664","279081","6738","279414","277146","277136","279081","6738","CogMod 2015 Experiment","67","21257","68","yes","1024"
"1","400","150","15","98.5507246377","98.5507246377","312","312","white","no","xpyriment","legacy","legacy","0","uniform","1","1","m","0","0","0","0","0","68","NA","NA","68","68","0","68","68","68","68","0","11/26/15 13:24:03","Default description","no","mono","no","18","black","Ok","768","legacy","C:/Users/Thomas/Documents/KI/subject-2016346.csv","xpyriment","Interactive Ising","3.0.2","0","m","NA","NA","m","319","NA","NA","319","legacy","experiment","2016346","even","legacy","35900","NA","NA","NA","NA","282399","NA","NA","281649","282066","6738","282400","280131","280120","282066","6738","CogMod 2015 Experiment","68","21576","69","yes","1024"
"1","800","-150","15","98.5714285714","98.5714285714","311","311","white","no","xpyriment","legacy","legacy","0","uniform","1","1","z","0","0","0","0","0","69","NA","NA","69","69","0","69","69","69","69","0","11/26/15 13:24:03","Default description","no","mono","no","18","black","Ok","768","legacy","C:/Users/Thomas/Documents/KI/subject-2016346.csv","xpyriment","Interactive Ising","3.0.2","0","z","NA","NA","z","257","NA","NA","257","legacy","experiment","2016346","even","legacy","35900","NA","NA","NA","NA","285818","NA","NA","284738","285552","6738","285818","283200","283185","285551","6738","CogMod 2015 Experiment","69","21833","70","yes","1024"
"1","800","-150","15","98.5915492958","98.5915492958","311","311","white","no","xpyriment","legacy","legacy","0","uniform","1","1","z","0","0","0","0","0","70","NA","NA","70","70","0","70","70","70","70","0","11/26/15 13:24:03","Default description","no","mono","no","18","black","Ok","768","legacy","C:/Users/Thomas/Documents/KI/subject-2016346.csv","xpyriment","Interactive Ising","3.0.2","0","z","NA","NA","z","316","NA","NA","316","legacy","experiment","2016346","even","legacy","35900","NA","NA","NA","NA","289171","NA","NA","288020","288838","6738","289172","286502","286492","288838","6738","CogMod 2015 Experiment","70","22149","71","yes","1024"
"1","400","150","15","98.6111111111","98.6111111111","311","311","white","no","xpyriment","legacy","legacy","0","uniform","1","1","m","0","0","0","0","0","71","NA","NA","71","71","0","71","71","71","71","0","11/26/15 13:24:03","Default description","no","mono","no","18","black","Ok","768","legacy","C:/Users/Thomas/Documents/KI/subject-2016346.csv","xpyriment","Interactive Ising","3.0.2","0","m","NA","NA","m","306","NA","NA","306","legacy","experiment","2016346","even","legacy","35900","NA","NA","NA","NA","292123","NA","NA","291390","291807","6738","292123","289872","289858","291806","6738","CogMod 2015 Experiment","71","22455","72","yes","1024"
"1","1600","150","15","98.6301369863","98.6301369863","312","312","white","no","xpyriment","legacy","legacy","0","uniform","1","1","m","0","0","0","0","0","72","NA","NA","72","72","0","72","72","72","72","0","11/26/15 13:24:03","Default description","no","mono","no","18","black","Ok","768","legacy","C:/Users/Thomas/Documents/KI/subject-2016346.csv","xpyriment","Interactive Ising","3.0.2","0","m","NA","NA","m","330","NA","NA","330","legacy","experiment","2016346","even","legacy","35900","NA","NA","NA","NA","296325","NA","NA","294358","295975","6738","296326","292839","292801","295975","6738","CogMod 2015 Experiment","72","22785","73","yes","1024"
"1","400","150","15","98.6486486486","98.6486486486","313","313","white","no","xpyriment","legacy","legacy","0","uniform","1","1","m","0","0","0","0","0","73","NA","NA","73","73","0","73","73","73","73","0","11/26/15 13:24:03","Default description","no","mono","no","18","black","Ok","768","legacy","C:/Users/Thomas/Documents/KI/subject-2016346.csv","xpyriment","Interactive Ising","3.0.2","0","m","NA","NA","m","382","NA","NA","382","legacy","experiment","2016346","even","legacy","35900","NA","NA","NA","NA","299411","NA","NA","298594","299011","6738","299411","297076","297055","299011","6738","CogMod 2015 Experiment","73","23167","74","yes","1024"
"1","1600","-150","15","98.6666666667","98.6666666667","312","312","white","no","xpyriment","legacy","legacy","0","uniform","1","1","z","0","0","0","0","0","74","NA","NA","74","74","0","74","74","74","74","0","11/26/15 13:24:03","Default description","no","mono","no","18","black","Ok","768","legacy","C:/Users/Thomas/Documents/KI/subject-2016346.csv","xpyriment","Interactive Ising","3.0.2","0","z","NA","NA","z","291","NA","NA","291","legacy","experiment","2016346","even","legacy","35900","NA","NA","NA","NA","303530","NA","NA","301613","303230","6738","303530","300095","300083","303230","6738","CogMod 2015 Experiment","74","23458","75","yes","1024"
"1","400","-150","15","98.6842105263","98.6842105263","313","313","white","no","xpyriment","legacy","legacy","0","uniform","1","1","z","0","0","0","0","0","75","NA","NA","75","75","0","75","75","75","75","0","11/26/15 13:24:03","Default description","no","mono","no","18","black","Ok","768","legacy","C:/Users/Thomas/Documents/KI/subject-2016346.csv","xpyriment","Interactive Ising","3.0.2","0","z","NA","NA","z","331","NA","NA","331","legacy","experiment","2016346","even","legacy","35900","NA","NA","NA","NA","306533","NA","NA","305766","306183","6738","306533","304248","304234","306183","6738","CogMod 2015 Experiment","75","23789","76","yes","1024"
"1","1600","-150","15","98.7012987013","98.7012987013","313","313","white","no","xpyriment","legacy","legacy","0","uniform","1","1","z","0","0","0","0","0","76","NA","NA","76","76","0","76","76","76","76","0","11/26/15 13:24:03","Default description","no","mono","no","18","black","Ok","768","legacy","C:/Users/Thomas/Documents/KI/subject-2016346.csv","xpyriment","Interactive Ising","3.0.2","0","z","NA","NA","z","335","NA","NA","335","legacy","experiment","2016346","even","legacy","35900","NA","NA","NA","NA","310736","NA","NA","308768","310386","6738","310736","307252","307227","310386","6738","CogMod 2015 Experiment","76","24124","77","yes","1024"
"1","1600","-150","15","98.7179487179","98.7179487179","313","313","white","no","xpyriment","legacy","legacy","0","uniform","1","1","z","0","0","0","0","0","77","NA","NA","77","77","0","77","77","77","77","0","11/26/15 13:24:03","Default description","no","mono","no","18","black","Ok","768","legacy","C:/Users/Thomas/Documents/KI/subject-2016346.csv","xpyriment","Interactive Ising","3.0.2","0","z","NA","NA","z","324","NA","NA","324","legacy","experiment","2016346","even","legacy","35900","NA","NA","NA","NA","314922","NA","NA","312971","314589","6738","314922","311453","311432","314588","6738","CogMod 2015 Experiment","77","24448","78","yes","1024"
"1","1200","150","15","98.7341772152","98.7341772152","314","314","white","no","xpyriment","legacy","legacy","0","uniform","1","1","m","0","0","0","0","0","78","NA","NA","78","78","0","78","78","78","78","0","11/26/15 13:24:03","Default description","no","mono","no","18","black","Ok","768","legacy","C:/Users/Thomas/Documents/KI/subject-2016346.csv","xpyriment","Interactive Ising","3.0.2","0","m","NA","NA","m","379","NA","NA","379","legacy","experiment","2016346","even","legacy","35900","NA","NA","NA","NA","318758","NA","NA","317140","318358","6738","318758","315622","315601","318357","6738","CogMod 2015 Experiment","78","24827","79","yes","1024"
"1","800","-150","15","98.75","98.75","314","314","white","no","xpyriment","legacy","legacy","0","uniform","1","1","z","0","0","0","0","0","79","NA","NA","79","79","0","79","79","79","79","0","11/26/15 13:24:03","Default description","no","mono","no","18","black","Ok","768","legacy","C:/Users/Thomas/Documents/KI/subject-2016346.csv","xpyriment","Interactive Ising","3.0.2","0","z","NA","NA","z","320","NA","NA","320","legacy","experiment","2016346","even","legacy","35900","NA","NA","NA","NA","322126","NA","NA","320976","321793","6738","322126","319458","319440","321793","6738","CogMod 2015 Experiment","79","25147","80","yes","1024"
"1","800","-150","15","98.7654320988","98.7654320988","314","314","white","no","xpyriment","legacy","legacy","0","uniform","1","1","z","0","0","0","0","0","80","NA","NA","80","80","0","80","80","80","80","0","11/26/15 13:24:03","Default description","no","mono","no","18","black","Ok","768","legacy","C:/Users/Thomas/Documents/KI/subject-2016346.csv","xpyriment","Interactive Ising","3.0.2","0","z","NA","NA","z","326","NA","NA","326","legacy","experiment","2016346","even","legacy","35900","NA","NA","NA","NA","325496","NA","NA","324346","325163","6738","325496","322827","322813","325163","6738","CogMod 2015 Experiment","80","25473","81","yes","1024"
"1","400","-150","15","98.7804878049","98.7804878049","314","314","white","no","xpyriment","legacy","legacy","0","uniform","1","1","z","0","0","0","0","0","81","NA","NA","81","81","0","81","81","81","81","0","11/26/15 13:24:03","Default description","no","mono","no","18","black","Ok","768","legacy","C:/Users/Thomas/Documents/KI/subject-2016346.csv","xpyriment","Interactive Ising","3.0.2","0","z","NA","NA","z","302","NA","NA","302","legacy","experiment","2016346","even","legacy","35900","NA","NA","NA","NA","328448","NA","NA","327714","328131","6738","328448","326197","326173","328131","6738","CogMod 2015 Experiment","81","25775","82","yes","1024"
"1","1600","150","15","97.5903614458","97.5903614458","314","314","white","no","xpyriment","legacy","legacy","0","uniform","0","0","m","0","0","0","0","0","82","NA","NA","82","82","0","82","82","82","82","0","11/26/15 13:24:03","Default description","no","mono","no","18","black","Ok","768","legacy","C:/Users/Thomas/Documents/KI/subject-2016346.csv","xpyriment","Interactive Ising","3.0.2","0","z","NA","NA","z","326","NA","NA","326","legacy","experiment","2016346","even","legacy","35900","NA","NA","NA","NA","332601","NA","NA","330650","332267","6738","332601","329132","329123","332267","6738","CogMod 2015 Experiment","81","26101","83","yes","1024"
"1","1200","-150","15","97.619047619","97.619047619","314","314","white","no","xpyriment","legacy","legacy","0","uniform","1","1","z","0","0","0","0","0","83","NA","NA","83","83","0","83","83","83","83","0","11/26/15 13:24:03","Default description","no","mono","no","18","black","Ok","768","legacy","C:/Users/Thomas/Documents/KI/subject-2016346.csv","xpyriment","Interactive Ising","3.0.2","0","z","NA","NA","z","348","NA","NA","348","legacy","experiment","2016346","even","legacy","35900","NA","NA","NA","NA","336470","NA","NA","334835","336053","6738","336470","333318","333307","336053","6738","CogMod 2015 Experiment","82","26449","84","yes","1024"
"1","400","150","15","97.6470588235","97.6470588235","315","315","white","no","xpyriment","legacy","legacy","0","uniform","1","1","m","0","0","0","0","0","84","NA","NA","84","84","0","84","84","84","84","0","11/26/15 13:24:03","Default description","no","mono","no","18","black","Ok","768","legacy","C:/Users/Thomas/Documents/KI/subject-2016346.csv","xpyriment","Interactive Ising","3.0.2","0","m","NA","NA","m","364","NA","NA","364","legacy","experiment","2016346","even","legacy","35900","NA","NA","NA","NA","339588","NA","NA","338788","339205","6738","339588","337273","337253","339205","6738","CogMod 2015 Experiment","83","26813","85","yes","1024"
"1","400","150","15","97.6744186047","97.6744186047","315","315","white","no","xpyriment","legacy","legacy","0","uniform","1","1","m","0","0","0","0","0","85","NA","NA","85","85","0","85","85","85","85","0","11/26/15 13:24:03","Default description","no","mono","no","18","black","Ok","768","legacy","C:/Users/Thomas/Documents/KI/subject-2016346.csv","xpyriment","Interactive Ising","3.0.2","0","m","NA","NA","m","305","NA","NA","305","legacy","experiment","2016346","even","legacy","35900","NA","NA","NA","NA","342525","NA","NA","341791","342208","6738","342525","340272","340260","342208","6738","CogMod 2015 Experiment","84","27118","86","yes","1024"
"1","800","-150","15","97.7011494253","97.7011494253","314","314","white","no","xpyriment","legacy","legacy","0","uniform","1","1","z","0","0","0","0","0","86","NA","NA","86","86","0","86","86","86","86","0","11/26/15 13:24:03","Default description","no","mono","no","18","black","Ok","768","legacy","C:/Users/Thomas/Documents/KI/subject-2016346.csv","xpyriment","Interactive Ising","3.0.2","0","z","NA","NA","z","264","NA","NA","264","legacy","experiment","2016346","even","legacy","35900","NA","NA","NA","NA","345860","NA","NA","344759","345577","6738","345860","343242","343221","345577","6738","CogMod 2015 Experiment","85","27382","87","yes","1024"
"1","800","-150","15","97.7272727273","97.7272727273","314","314","white","no","xpyriment","legacy","legacy","0","uniform","1","1","z","0","0","0","0","0","87","NA","NA","87","87","0","87","87","87","87","0","11/26/15 13:24:03","Default description","no","mono","no","18","black","Ok","768","legacy","C:/Users/Thomas/Documents/KI/subject-2016346.csv","xpyriment","Interactive Ising","3.0.2","0","z","NA","NA","z","322","NA","NA","322","legacy","experiment","2016346","even","legacy","35900","NA","NA","NA","NA","349212","NA","NA","348061","348879","6738","349212","346544","346525","348879","6738","CogMod 2015 Experiment","86","27704","88","yes","1024"
"1","1200","150","15","97.7528089888","97.7528089888","314","314","white","no","xpyriment","legacy","legacy","0","uniform","1","1","m","0","0","0","0","0","88","NA","NA","88","88","0","88","88","88","88","0","11/26/15 13:24:03","Default description","no","mono","no","18","black","Ok","768","legacy","C:/Users/Thomas/Documents/KI/subject-2016346.csv","xpyriment","Interactive Ising","3.0.2","0","m","NA","NA","m","312","NA","NA","312","legacy","experiment","2016346","even","legacy","35900","NA","NA","NA","NA","353014","NA","NA","351447","352681","6738","353015","349929","349906","352681","6738","CogMod 2015 Experiment","87","28016","89","yes","1024"
"1","400","150","15","97.7777777778","97.7777777778","314","314","white","no","xpyriment","legacy","legacy","0","uniform","1","1","m","0","0","0","0","0","89","NA","NA","89","89","0","89","89","89","89","0","11/26/15 13:24:03","Default description","no","mono","no","18","black","Ok","768","legacy","C:/Users/Thomas/Documents/KI/subject-2016346.csv","xpyriment","Interactive Ising","3.0.2","0","m","NA","NA","m","303","NA","NA","303","legacy","experiment","2016346","even","legacy","35900","NA","NA","NA","NA","355966","NA","NA","355233","355650","6738","355966","353715","353692","355649","6738","CogMod 2015 Experiment","88","28319","90","yes","1024"
"1","800","150","15","97.8021978022","97.8021978022","314","314","white","no","xpyriment","legacy","legacy","0","uniform","1","1","m","0","0","0","0","0","90","NA","NA","90","90","0","90","90","90","90","0","11/26/15 13:24:03","Default description","no","mono","no","18","black","Ok","768","legacy","C:/Users/Thomas/Documents/KI/subject-2016346.csv","xpyriment","Interactive Ising","3.0.2","0","m","NA","NA","m","311","NA","NA","311","legacy","experiment","2016346","even","legacy","35900","NA","NA","NA","NA","359319","NA","NA","358185","359003","6738","359319","356667","356645","359003","6738","CogMod 2015 Experiment","89","28630","91","yes","1024"
"1","1600","-150","15","97.8260869565","97.8260869565","314","314","white","no","xpyriment","legacy","legacy","0","uniform","1","1","z","0","0","0","0","0","91","NA","NA","91","91","0","91","91","91","91","0","11/26/15 13:24:03","Default description","no","mono","no","18","black","Ok","768","legacy","C:/Users/Thomas/Documents/KI/subject-2016346.csv","xpyriment","Interactive Ising","3.0.2","0","z","NA","NA","z","302","NA","NA","302","legacy","experiment","2016346","even","legacy","35900","NA","NA","NA","NA","363455","NA","NA","361521","363139","6738","363455","360003","359992","363138","6738","CogMod 2015 Experiment","90","28932","92","yes","1024"
"1","800","150","15","97.8494623656","97.8494623656","314","314","white","no","xpyriment","legacy","legacy","0","uniform","1","1","m","0","0","0","0","0","92","NA","NA","92","92","0","92","92","92","92","0","11/26/15 13:24:03","Default description","no","mono","no","18","black","Ok","768","legacy","C:/Users/Thomas/Documents/KI/subject-2016346.csv","xpyriment","Interactive Ising","3.0.2","0","m","NA","NA","m","326","NA","NA","326","legacy","experiment","2016346","even","legacy","35900","NA","NA","NA","NA","366824","NA","NA","365673","366491","6738","366824","364156","364143","366491","6738","CogMod 2015 Experiment","91","29258","93","yes","1024"
"1","1600","-150","15","97.8723404255","97.8723404255","314","314","white","no","xpyriment","legacy","legacy","0","uniform","1","1","z","0","0","0","0","0","93","NA","NA","93","93","0","93","93","93","93","0","11/26/15 13:24:03","Default description","no","mono","no","18","black","Ok","768","legacy","C:/Users/Thomas/Documents/KI/subject-2016346.csv","xpyriment","Interactive Ising","3.0.2","0","z","NA","NA","z","285","NA","NA","285","legacy","experiment","2016346","even","legacy","35900","NA","NA","NA","NA","370960","NA","NA","369042","370660","6738","370960","367525","367504","370660","6738","CogMod 2015 Experiment","92","29543","94","yes","1024"
"1","400","-150","15","97.8947368421","97.8947368421","314","314","white","no","xpyriment","legacy","legacy","0","uniform","1","1","z","0","0","0","0","0","94","NA","NA","94","94","0","94","94","94","94","0","11/26/15 13:24:03","Default description","no","mono","no","18","black","Ok","768","legacy","C:/Users/Thomas/Documents/KI/subject-2016346.csv","xpyriment","Interactive Ising","3.0.2","0","z","NA","NA","z","310","NA","NA","310","legacy","experiment","2016346","even","legacy","35900","NA","NA","NA","NA","373912","NA","NA","373178","373595","6738","373912","371660","371637","373595","6738","CogMod 2015 Experiment","93","29853","95","yes","1024"
"1","1200","150","15","97.9166666667","97.9166666667","314","314","white","no","xpyriment","legacy","legacy","0","uniform","1","1","m","0","0","0","0","0","95","NA","NA","95","95","0","95","95","95","95","0","11/26/15 13:24:03","Default description","no","mono","no","18","black","Ok","768","legacy","C:/Users/Thomas/Documents/KI/subject-2016346.csv","xpyriment","Interactive Ising","3.0.2","0","m","NA","NA","m","333","NA","NA","333","legacy","experiment","2016346","even","legacy","35900","NA","NA","NA","NA","377699","NA","NA","376131","377349","6738","377699","374612","374597","377348","6738","CogMod 2015 Experiment","94","30186","96","yes","1024"
"1","800","-150","15","97.9381443299","97.9381443299","314","314","white","no","xpyriment","legacy","legacy","0","uniform","1","1","z","0","0","0","0","0","96","NA","NA","96","96","0","96","96","96","96","0","11/26/15 13:24:03","Default description","no","mono","no","18","black","Ok","768","legacy","C:/Users/Thomas/Documents/KI/subject-2016346.csv","xpyriment","Interactive Ising","3.0.2","0","z","NA","NA","z","275","NA","NA","275","legacy","experiment","2016346","even","legacy","35900","NA","NA","NA","NA","381017","NA","NA","379917","380734","6738","381017","378399","378387","380734","6738","CogMod 2015 Experiment","95","30461","97","yes","1024"
"1","800","150","15","97.9591836735","97.9591836735","313","313","white","no","xpyriment","legacy","legacy","0","uniform","1","1","m","0","0","0","0","0","97","NA","NA","97","97","0","97","97","97","97","0","11/26/15 13:24:03","Default description","no","mono","no","18","black","Ok","768","legacy","C:/Users/Thomas/Documents/KI/subject-2016346.csv","xpyriment","Interactive Ising","3.0.2","0","m","NA","NA","m","283","NA","NA","283","legacy","experiment","2016346","even","legacy","35900","NA","NA","NA","NA","384369","NA","NA","383252","384070","6738","384370","381734","381713","384069","6738","CogMod 2015 Experiment","96","30744","98","yes","1024"
"1","1600","150","15","97.9797979798","97.9797979798","313","313","white","no","xpyriment","legacy","legacy","0","uniform","1","1","m","0","0","0","0","0","98","NA","NA","98","98","0","98","98","98","98","0","11/26/15 13:24:03","Default description","no","mono","no","18","black","Ok","768","legacy","C:/Users/Thomas/Documents/KI/subject-2016346.csv","xpyriment","Interactive Ising","3.0.2","0","m","NA","NA","m","305","NA","NA","305","legacy","experiment","2016346","even","legacy","35900","NA","NA","NA","NA","388589","NA","NA","386654","388272","6738","388589","385137","385118","388272","6738","CogMod 2015 Experiment","97","31049","99","yes","1024"
"1","400","-150","15","98","98","313","313","white","no","xpyriment","legacy","legacy","0","uniform","1","1","z","0","0","0","0","0","99","NA","NA","99","99","0","99","99","99","99","0","11/26/15 13:24:03","Default description","no","mono","no","18","black","Ok","768","legacy","C:/Users/Thomas/Documents/KI/subject-2016346.csv","xpyriment","Interactive Ising","3.0.2","0","z","NA","NA","z","328","NA","NA","328","legacy","experiment","2016346","even","legacy","35900","NA","NA","NA","NA","391574","NA","NA","390824","391241","6738","391574","389308","389296","391240","6738","CogMod 2015 Experiment","98","31377","100","yes","1024"
"1","400","-150","15","98.0198019802","98.0198019802","313","313","white","no","xpyriment","legacy","legacy","0","uniform","1","1","z","0","0","0","0","0","100","NA","NA","100","100","0","100","100","100","100","0","11/26/15 13:24:03","Default description","no","mono","no","18","black","Ok","768","legacy","C:/Users/Thomas/Documents/KI/subject-2016346.csv","xpyriment","Interactive Ising","3.0.2","0","z","NA","NA","z","321","NA","NA","321","legacy","experiment","2016346","even","legacy","35900","NA","NA","NA","NA","394527","NA","NA","393776","394193","6738","394527","392258","392245","394193","6738","CogMod 2015 Experiment","99","31698","101","yes","1024"
"1","1200","-150","15","98.0392156863","98.0392156863","313","313","white","no","xpyriment","legacy","legacy","0","uniform","1","1","z","0","0","0","0","0","101","NA","NA","101","101","0","101","101","101","101","0","11/26/15 13:24:03","Default description","no","mono","no","18","black","Ok","768","legacy","C:/Users/Thomas/Documents/KI/subject-2016346.csv","xpyriment","Interactive Ising","3.0.2","0","z","NA","NA","z","326","NA","NA","326","legacy","experiment","2016346","even","legacy","35900","NA","NA","NA","NA","398296","NA","NA","396745","397963","6738","398296","395227","395214","397962","6738","CogMod 2015 Experiment","100","32024","102","yes","1024"
"1","1600","150","15","98.0582524272","98.0582524272","313","313","white","no","xpyriment","legacy","legacy","0","uniform","1","1","m","0","0","0","0","0","102","NA","NA","102","102","0","102","102","102","102","0","11/26/15 13:24:03","Default description","no","mono","no","18","black","Ok","768","legacy","C:/Users/Thomas/Documents/KI/subject-2016346.csv","xpyriment","Interactive Ising","3.0.2","0","m","NA","NA","m","314","NA","NA","314","legacy","experiment","2016346","even","legacy","35900","NA","NA","NA","NA","402532","NA","NA","400581","402199","6738","402532","399063","399040","402198","6738","CogMod 2015 Experiment","101","32338","103","yes","1024"
"1","1600","-150","15","98.0769230769","98.0769230769","313","313","white","no","xpyriment","legacy","legacy","0","uniform","1","1","z","0","0","0","0","0","103","NA","NA","103","103","0","103","103","103","103","0","11/26/15 13:24:03","Default description","no","mono","no","18","black","Ok","768","legacy","C:/Users/Thomas/Documents/KI/subject-2016346.csv","xpyriment","Interactive Ising","3.0.2","0","z","NA","NA","z","305","NA","NA","305","legacy","experiment","2016346","even","legacy","35900","NA","NA","NA","NA","406684","NA","NA","404750","406368","6738","406685","403232","403216","406368","6738","CogMod 2015 Experiment","102","32643","104","yes","1024"
"1","800","-150","15","98.0952380952","98.0952380952","313","313","white","no","xpyriment","legacy","legacy","0","uniform","1","1","z","0","0","0","0","0","104","NA","NA","104","104","0","104","104","104","104","0","11/26/15 13:24:03","Default description","no","mono","no","18","black","Ok","768","legacy","C:/Users/Thomas/Documents/KI/subject-2016346.csv","xpyriment","Interactive Ising","3.0.2","0","z","NA","NA","z","313","NA","NA","313","legacy","experiment","2016346","even","legacy","35900","NA","NA","NA","NA","410053","NA","NA","408903","409720","6738","410053","407385","407373","409720","6738","CogMod 2015 Experiment","103","32956","105","yes","1024"
"1","1600","-150","15","98.1132075472","98.1132075472","313","313","white","no","xpyriment","legacy","legacy","0","uniform","1","1","z","0","0","0","0","0","105","NA","NA","105","105","0","105","105","105","105","0","11/26/15 13:24:03","Default description","no","mono","no","18","black","Ok","768","legacy","C:/Users/Thomas/Documents/KI/subject-2016346.csv","xpyriment","Interactive Ising","3.0.2","0","z","NA","NA","z","286","NA","NA","286","legacy","experiment","2016346","even","legacy","35900","NA","NA","NA","NA","414207","NA","NA","412289","413907","6738","414207","410771","410760","413907","6738","CogMod 2015 Experiment","104","33242","106","yes","1024"
"1","800","150","15","98.1308411215","98.1308411215","313","313","white","no","xpyriment","legacy","legacy","0","uniform","1","1","m","0","0","0","0","0","106","NA","NA","106","106","0","106","106","106","106","0","11/26/15 13:24:03","Default description","no","mono","no","18","black","Ok","768","legacy","C:/Users/Thomas/Documents/KI/subject-2016346.csv","xpyriment","Interactive Ising","3.0.2","0","m","NA","NA","m","327","NA","NA","327","legacy","experiment","2016346","even","legacy","35900","NA","NA","NA","NA","417576","NA","NA","416425","417242","6738","417576","414907","414888","417242","6738","CogMod 2015 Experiment","105","33569","107","yes","1024"
"1","1200","-150","15","98.1481481481","98.1481481481","313","313","white","no","xpyriment","legacy","legacy","0","uniform","1","1","z","0","0","0","0","0","107","NA","NA","107","107","0","107","107","107","107","0","11/26/15 13:24:03","Default description","no","mono","no","18","black","Ok","768","legacy","C:/Users/Thomas/Documents/KI/subject-2016346.csv","xpyriment","Interactive Ising","3.0.2","0","z","NA","NA","z","266","NA","NA","266","legacy","experiment","2016346","even","legacy","35900","NA","NA","NA","NA","421378","NA","NA","419877","421095","6738","421378","418362","418345","421095","6738","CogMod 2015 Experiment","106","33835","108","yes","1024"
"1","1200","-150","15","98.1651376147","98.1651376147","313","313","white","no","xpyriment","legacy","legacy","0","uniform","1","1","z","0","0","0","0","0","108","NA","NA","108","108","0","108","108","108","108","0","11/26/15 13:24:03","Default description","no","mono","no","18","black","Ok","768","legacy","C:/Users/Thomas/Documents/KI/subject-2016346.csv","xpyriment","Interactive Ising","3.0.2","0","z","NA","NA","z","307","NA","NA","307","legacy","experiment","2016346","even","legacy","35900","NA","NA","NA","NA","425147","NA","NA","423613","424830","6738","425147","422095","422073","424830","6738","CogMod 2015 Experiment","107","34142","109","yes","1024"
"1","400","-150","15","98.1818181818","98.1818181818","313","313","white","no","xpyriment","legacy","legacy","0","uniform","1","1","z","0","0","0","0","0","109","NA","NA","109","109","0","109","109","109","109","0","11/26/15 13:24:03","Default description","no","mono","no","18","black","Ok","768","legacy","C:/Users/Thomas/Documents/KI/subject-2016346.csv","xpyriment","Interactive Ising","3.0.2","0","z","NA","NA","z","331","NA","NA","331","legacy","experiment","2016346","even","legacy","35900","NA","NA","NA","NA","428150","NA","NA","427382","427799","6738","428150","425864","425841","427799","6738","CogMod 2015 Experiment","108","34473","110","yes","1024"
"1","1600","150","15","98.1981981982","98.1981981982","313","313","white","no","xpyriment","legacy","legacy","0","uniform","1","1","m","0","0","0","0","0","110","NA","NA","110","110","0","110","110","110","110","0","11/26/15 13:24:03","Default description","no","mono","no","18","black","Ok","768","legacy","C:/Users/Thomas/Documents/KI/subject-2016346.csv","xpyriment","Interactive Ising","3.0.2","0","m","NA","NA","m","288","NA","NA","288","legacy","experiment","2016346","even","legacy","35900","NA","NA","NA","NA","432269","NA","NA","430351","431969","6738","432269","428834","428815","431969","6738","CogMod 2015 Experiment","109","34761","111","yes","1024"
"1","1600","150","15","98.2142857143","98.2142857143","312","312","white","no","xpyriment","legacy","legacy","0","uniform","1","1","m","0","0","0","0","0","111","NA","NA","111","111","0","111","111","111","111","0","11/26/15 13:24:03","Default description","no","mono","no","18","black","Ok","768","legacy","C:/Users/Thomas/Documents/KI/subject-2016346.csv","xpyriment","Interactive Ising","3.0.2","0","m","NA","NA","m","294","NA","NA","294","legacy","experiment","2016346","even","legacy","35900","NA","NA","NA","NA","436455","NA","NA","434537","436155","6738","436455","433020","433007","436155","6738","CogMod 2015 Experiment","110","35055","112","yes","1024"
"1","800","150","15","98.2300884956","98.2300884956","312","312","white","no","xpyriment","legacy","legacy","0","uniform","1","1","m","0","0","0","0","0","112","NA","NA","112","112","0","112","112","112","112","0","11/26/15 13:24:03","Default description","no","mono","no","18","black","Ok","768","legacy","C:/Users/Thomas/Documents/KI/subject-2016346.csv","xpyriment","Interactive Ising","3.0.2","0","m","NA","NA","m","303","NA","NA","303","legacy","experiment","2016346","even","legacy","35900","NA","NA","NA","NA","439791","NA","NA","438657","439474","6738","439791","437139","437125","439474","6738","CogMod 2015 Experiment","111","35358","113","yes","1024"
"1","800","-150","15","98.2456140351","98.2456140351","312","312","white","no","xpyriment","legacy","legacy","0","uniform","1","1","z","0","0","0","0","0","113","NA","NA","113","113","0","113","113","113","113","0","11/26/15 13:24:03","Default description","no","mono","no","18","black","Ok","768","legacy","C:/Users/Thomas/Documents/KI/subject-2016346.csv","xpyriment","Interactive Ising","3.0.2","0","z","NA","NA","z","278","NA","NA","278","legacy","experiment","2016346","even","legacy","35900","NA","NA","NA","NA","443126","NA","NA","442025","442843","6738","443126","440508","440490","442843","6738","CogMod 2015 Experiment","112","35636","114","yes","1024"
"1","1200","150","15","98.2608695652","98.2608695652","312","312","white","no","xpyriment","legacy","legacy","0","uniform","1","1","m","0","0","0","0","0","114","NA","NA","114","114","0","114","114","114","114","0","11/26/15 13:24:03","Default description","no","mono","no","18","black","Ok","768","legacy","C:/Users/Thomas/Documents/KI/subject-2016346.csv","xpyriment","Interactive Ising","3.0.2","0","m","NA","NA","m","272","NA","NA","272","legacy","experiment","2016346","even","legacy","35900","NA","NA","NA","NA","446829","NA","NA","445327","446546","6738","446829","443810","443799","446546","6738","CogMod 2015 Experiment","113","35908","115","yes","1024"
"1","1600","150","15","98.275862069","98.275862069","311","311","white","no","xpyriment","legacy","legacy","0","uniform","1","1","m","0","0","0","0","0","115","NA","NA","115","115","0","115","115","115","115","0","11/26/15 13:24:03","Default description","no","mono","no","18","black","Ok","768","legacy","C:/Users/Thomas/Documents/KI/subject-2016346.csv","xpyriment","Interactive Ising","3.0.2","0","m","NA","NA","m","248","NA","NA","248","legacy","experiment","2016346","even","legacy","35900","NA","NA","NA","NA","450932","NA","NA","449047","450665","6738","450932","447530","447520","450665","6738","CogMod 2015 Experiment","114","36156","116","yes","1024"
"1","400","-150","15","98.2905982906","98.2905982906","313","313","white","no","xpyriment","legacy","legacy","0","uniform","1","1","z","0","0","0","0","0","116","NA","NA","116","116","0","116","116","116","116","0","11/26/15 13:24:03","Default description","no","mono","no","18","black","Ok","768","legacy","C:/Users/Thomas/Documents/KI/subject-2016346.csv","xpyriment","Interactive Ising","3.0.2","0","z","NA","NA","z","496","NA","NA","496","legacy","experiment","2016346","even","legacy","35900","NA","NA","NA","NA","454134","NA","NA","453200","453617","6738","454134","451682","451661","453617","6738","CogMod 2015 Experiment","115","36652","117","yes","1024"
"1","1200","150","15","98.3050847458","98.3050847458","313","313","white","no","xpyriment","legacy","legacy","0","uniform","1","1","m","0","0","0","0","0","117","NA","NA","117","117","0","117","117","117","117","0","11/26/15 13:24:03","Default description","no","mono","no","18","black","Ok","768","legacy","C:/Users/Thomas/Documents/KI/subject-2016346.csv","xpyriment","Interactive Ising","3.0.2","0","m","NA","NA","m","288","NA","NA","288","legacy","experiment","2016346","even","legacy","35900","NA","NA","NA","NA","457853","NA","NA","456335","457553","6738","457853","454818","454805","457553","6738","CogMod 2015 Experiment","116","36940","118","yes","1024"
"1","1200","150","15","98.3193277311","98.3193277311","313","313","white","no","xpyriment","legacy","legacy","0","uniform","1","1","m","0","0","0","0","0","118","NA","NA","118","118","0","118","118","118","118","0","11/26/15 13:24:03","Default description","no","mono","no","18","black","Ok","768","legacy","C:/Users/Thomas/Documents/KI/subject-2016346.csv","xpyriment","Interactive Ising","3.0.2","0","m","NA","NA","m","360","NA","NA","360","legacy","experiment","2016346","even","legacy","35900","NA","NA","NA","NA","461655","NA","NA","460071","461289","6738","461655","458553","458531","461288","6738","CogMod 2015 Experiment","117","37300","119","yes","1024"
"1","1200","-150","15","98.3333333333","98.3333333333","313","313","white","no","xpyriment","legacy","legacy","0","uniform","1","1","z","0","0","0","0","0","119","NA","NA","119","119","0","119","119","119","119","0","11/26/15 13:24:03","Default description","no","mono","no","18","black","Ok","768","legacy","C:/Users/Thomas/Documents/KI/subject-2016346.csv","xpyriment","Interactive Ising","3.0.2","0","z","NA","NA","z","268","NA","NA","268","legacy","experiment","2016346","even","legacy","35900","NA","NA","NA","NA","465409","NA","NA","463908","465125","6738","465409","462389","462364","465125","6738","CogMod 2015 Experiment","118","37568","120","yes","1024"
"2","1200","150","16","100","100","382","382","white","no","xpyriment","legacy","legacy","0","uniform","1","1","m","0","0","0","0","0","120","0","NA","120","120","0","120","120","120","120","0","11/26/15 13:24:03","Default description","no","mono","no","18","black","Ok","768","legacy","C:/Users/Thomas/Documents/KI/subject-2016346.csv","xpyriment","Interactive Ising","3.0.2","0","m","z","NA","m","382","30462","NA","382","legacy","experiment","2016346","even","legacy","35900","496721","NA","NA","NA","500516","466259","NA","498898","500116","6738","500516","497380","497367","500116","6738","CogMod 2015 Experiment","1","382","1","yes","1024"
"2","1600","-150","32","100","100","335","335","white","no","xpyriment","legacy","legacy","0","uniform","1","1","z","0","0","0","0","0","121","0","NA","121","121","0","121","121","121","121","0","11/26/15 13:24:03","Default description","no","mono","no","18","black","Ok","768","legacy","C:/Users/Thomas/Documents/KI/subject-2016346.csv","xpyriment","Interactive Ising","3.0.2","0","z","z","NA","z","288","30462","NA","288","legacy","experiment","2016346","even","legacy","35900","496721","NA","NA","NA","504669","466259","NA","502751","504369","6738","504669","501233","501209","504368","6738","CogMod 2015 Experiment","2","670","2","yes","1024"
"2","1600","150","32","100","100","327","327","white","no","xpyriment","legacy","legacy","0","uniform","1","1","m","0","0","0","0","0","122","0","NA","122","122","0","122","122","122","122","0","11/26/15 13:24:03","Default description","no","mono","no","18","black","Ok","768","legacy","C:/Users/Thomas/Documents/KI/subject-2016346.csv","xpyriment","Interactive Ising","3.0.2","0","m","z","NA","m","313","30462","NA","313","legacy","experiment","2016346","even","legacy","35900","496721","NA","NA","NA","508838","466259","NA","506886","508504","6738","508838","505369","505358","508504","6738","CogMod 2015 Experiment","3","983","3","yes","1024"
"2","1600","150","32","100","100","321","321","white","no","xpyriment","legacy","legacy","0","uniform","1","1","m","0","0","0","0","0","123","0","NA","123","123","0","123","123","123","123","0","11/26/15 13:24:03","Default description","no","mono","no","18","black","Ok","768","legacy","C:/Users/Thomas/Documents/KI/subject-2016346.csv","xpyriment","Interactive Ising","3.0.2","0","m","z","NA","m","304","30462","NA","304","legacy","experiment","2016346","even","legacy","35900","496721","NA","NA","NA","512974","466259","NA","511039","512657","6738","512974","509522","509510","512657","6738","CogMod 2015 Experiment","4","1287","4","yes","1024"
"2","1200","150","16","100","100","303","303","white","no","xpyriment","legacy","legacy","0","uniform","1","1","m","0","0","0","0","0","124","0","NA","124","124","0","124","124","124","124","0","11/26/15 13:24:03","Default description","no","mono","no","18","black","Ok","768","legacy","C:/Users/Thomas/Documents/KI/subject-2016346.csv","xpyriment","Interactive Ising","3.0.2","0","m","z","NA","m","232","30462","NA","232","legacy","experiment","2016346","even","legacy","35900","496721","NA","NA","NA","516644","466259","NA","515175","516394","6738","516644","513658","513639","516394","6738","CogMod 2015 Experiment","5","1519","5","yes","1024"
"2","1200","-150","16","100","100","306","306","white","no","xpyriment","legacy","legacy","0","uniform","1","1","z","0","0","0","0","0","125","0","NA","125","125","0","125","125","125","125","0","11/26/15 13:24:03","Default description","no","mono","no","18","black","Ok","768","legacy","C:/Users/Thomas/Documents/KI/subject-2016346.csv","xpyriment","Interactive Ising","3.0.2","0","z","z","NA","z","322","30462","NA","322","legacy","experiment","2016346","even","legacy","35900","496721","NA","NA","NA","520413","466259","NA","518862","520079","6738","520413","517344","517319","520079","6738","CogMod 2015 Experiment","6","1841","6","yes","1024"
"2","1600","-150","32","85.7142857143","85.7142857143","307","307","white","no","xpyriment","legacy","legacy","0","uniform","0","0","z","0","0","0","0","0","126","0","NA","126","126","0","126","126","126","126","0","11/26/15 13:24:03","Default description","no","mono","no","18","black","Ok","768","legacy","C:/Users/Thomas/Documents/KI/subject-2016346.csv","xpyriment","Interactive Ising","3.0.2","0","m","z","NA","m","312","30462","NA","312","legacy","experiment","2016346","even","legacy","35900","496721","NA","NA","NA","524582","466259","NA","522631","524249","6738","524583","521113","521103","524249","6738","CogMod 2015 Experiment","6","2153","7","yes","1024"
"2","1600","150","32","87.5","87.5","303","303","white","no","xpyriment","legacy","legacy","0","uniform","1","1","m","0","0","0","0","0","127","0","NA","127","127","0","127","127","127","127","0","11/26/15 13:24:03","Default description","no","mono","no","18","black","Ok","768","legacy","C:/Users/Thomas/Documents/KI/subject-2016346.csv","xpyriment","Interactive Ising","3.0.2","0","m","z","NA","m","271","30462","NA","271","legacy","experiment","2016346","even","legacy","35900","496721","NA","NA","NA","528701","466259","NA","526800","528418","6738","528701","525283","525262","528418","6738","CogMod 2015 Experiment","7","2424","8","yes","1024"
"2","1200","-150","16","88.8888888889","88.8888888889","300","300","white","no","xpyriment","legacy","legacy","0","uniform","1","1","z","0","0","0","0","0","128","0","NA","128","128","0","128","128","128","128","0","11/26/15 13:24:03","Default description","no","mono","no","18","black","Ok","768","legacy","C:/Users/Thomas/Documents/KI/subject-2016346.csv","xpyriment","Interactive Ising","3.0.2","0","z","z","NA","z","277","30462","NA","277","legacy","experiment","2016346","even","legacy","35900","496721","NA","NA","NA","532504","466259","NA","531003","532220","6738","532504","529487","529465","532220","6738","CogMod 2015 Experiment","8","2701","9","yes","1024"
"2","1600","-150","32","90","90","296","296","white","no","xpyriment","legacy","legacy","0","uniform","1","1","z","0","0","0","0","0","129","0","NA","129","129","0","129","129","129","129","0","11/26/15 13:24:03","Default description","no","mono","no","18","black","Ok","768","legacy","C:/Users/Thomas/Documents/KI/subject-2016346.csv","xpyriment","Interactive Ising","3.0.2","0","z","z","NA","z","264","30462","NA","264","legacy","experiment","2016346","even","legacy","35900","496721","NA","NA","NA","536724","466259","NA","534823","536441","6738","536724","533305","533281","536441","6738","CogMod 2015 Experiment","9","2965","10","yes","1024"
"2","1600","-150","32","90.9090909091","90.9090909091","297","297","white","no","xpyriment","legacy","legacy","0","uniform","1","1","z","0","0","0","0","0","130","0","NA","130","130","0","130","130","130","130","0","11/26/15 13:24:03","Default description","no","mono","no","18","black","Ok","768","legacy","C:/Users/Thomas/Documents/KI/subject-2016346.csv","xpyriment","Interactive Ising","3.0.2","0","z","z","NA","z","306","30462","NA","306","legacy","experiment","2016346","even","legacy","35900","496721","NA","NA","NA","540860","466259","NA","538926","540543","6738","540860","537410","537397","540543","6738","CogMod 2015 Experiment","10","3271","11","yes","1024"
"2","1200","-150","16","91.6666666667","91.6666666667","298","298","white","no","xpyriment","legacy","legacy","0","uniform","1","1","z","0","0","0","0","0","131","0","NA","131","131","0","131","131","131","131","0","11/26/15 13:24:03","Default description","no","mono","no","18","black","Ok","768","legacy","C:/Users/Thomas/Documents/KI/subject-2016346.csv","xpyriment","Interactive Ising","3.0.2","0","z","z","NA","z","314","30462","NA","314","legacy","experiment","2016346","even","legacy","35900","496721","NA","NA","NA","544612","466259","NA","543061","544279","6738","544612","541544","541530","544279","6738","CogMod 2015 Experiment","11","3585","12","yes","1024"
"2","1200","-150","16","92.3076923077","92.3076923077","296","296","white","no","xpyriment","legacy","legacy","0","uniform","1","1","z","0","0","0","0","0","132","0","NA","132","132","0","132","132","132","132","0","11/26/15 13:24:03","Default description","no","mono","no","18","black","Ok","768","legacy","C:/Users/Thomas/Documents/KI/subject-2016346.csv","xpyriment","Interactive Ising","3.0.2","0","z","z","NA","z","272","30462","NA","272","legacy","experiment","2016346","even","legacy","35900","496721","NA","NA","NA","548403","466259","NA","546847","548065","6738","548403","545331","545308","548065","6738","CogMod 2015 Experiment","12","3857","13","yes","1024"
"2","1600","150","32","92.8571428571","92.8571428571","296","296","white","no","xpyriment","legacy","legacy","0","uniform","1","1","m","0","0","0","0","0","133","0","NA","133","133","0","133","133","133","133","0","11/26/15 13:24:03","Default description","no","mono","no","18","black","Ok","768","legacy","C:/Users/Thomas/Documents/KI/subject-2016346.csv","xpyriment","Interactive Ising","3.0.2","0","m","z","NA","m","294","30462","NA","294","legacy","experiment","2016346","even","legacy","35900","496721","NA","NA","NA","552535","466259","NA","550617","552235","6738","552535","549098","549089","552235","6738","CogMod 2015 Experiment","13","4151","14","yes","1024"
"2","800","-150","8","93.3333333333","93.3333333333","295","295","white","no","xpyriment","legacy","legacy","0","uniform","1","1","z","0","0","0","0","0","134","0","NA","134","134","0","134","134","134","134","0","11/26/15 13:24:03","Default description","no","mono","no","18","black","Ok","768","legacy","C:/Users/Thomas/Documents/KI/subject-2016346.csv","xpyriment","Interactive Ising","3.0.2","0","z","z","NA","z","287","30462","NA","287","legacy","experiment","2016346","even","legacy","35900","496721","NA","NA","NA","555854","466259","NA","554736","555554","6738","555854","553221","553208","555553","6738","CogMod 2015 Experiment","14","4438","15","yes","1024"
"2","800","150","8","93.75","93.75","297","297","white","no","xpyriment","legacy","legacy","0","uniform","1","1","m","0","0","0","0","0","135","0","NA","135","135","0","135","135","135","135","0","11/26/15 13:24:03","Default description","no","mono","no","18","black","Ok","768","legacy","C:/Users/Thomas/Documents/KI/subject-2016346.csv","xpyriment","Interactive Ising","3.0.2","0","m","z","NA","m","329","30462","NA","329","legacy","experiment","2016346","even","legacy","35900","496721","NA","NA","NA","559222","466259","NA","558055","558872","6738","559223","556538","556527","558872","6738","CogMod 2015 Experiment","15","4767","16","yes","1024"
"2","1200","150","16","94.1176470588","94.1176470588","300","300","white","no","xpyriment","legacy","legacy","0","uniform","1","1","m","0","0","0","0","0","136","0","NA","136","136","0","136","136","136","136","0","11/26/15 13:24:03","Default description","no","mono","no","18","black","Ok","768","legacy","C:/Users/Thomas/Documents/KI/subject-2016346.csv","xpyriment","Interactive Ising","3.0.2","0","m","z","NA","m","335","30462","NA","335","legacy","experiment","2016346","even","legacy","35900","496721","NA","NA","NA","562992","466259","NA","561424","562642","6738","562992","559908","559896","562641","6738","CogMod 2015 Experiment","16","5102","17","yes","1024"
"2","800","150","8","94.4444444444","94.4444444444","301","301","white","no","xpyriment","legacy","legacy","0","uniform","1","1","m","0","0","0","0","0","137","0","NA","137","137","0","137","137","137","137","0","11/26/15 13:24:03","Default description","no","mono","no","18","black","Ok","768","legacy","C:/Users/Thomas/Documents/KI/subject-2016346.csv","xpyriment","Interactive Ising","3.0.2","0","m","z","NA","m","327","30462","NA","327","legacy","experiment","2016346","even","legacy","35900","496721","NA","NA","NA","566344","466259","NA","565193","566010","6738","566344","563675","563665","566010","6738","CogMod 2015 Experiment","17","5429","18","yes","1024"
"2","1200","150","16","94.7368421053","94.7368421053","301","301","white","no","xpyriment","legacy","legacy","0","uniform","1","1","m","0","0","0","0","0","138","0","NA","138","138","0","138","138","138","138","0","11/26/15 13:24:03","Default description","no","mono","no","18","black","Ok","768","legacy","C:/Users/Thomas/Documents/KI/subject-2016346.csv","xpyriment","Interactive Ising","3.0.2","0","m","z","NA","m","297","30462","NA","297","legacy","experiment","2016346","even","legacy","35900","496721","NA","NA","NA","570180","466259","NA","568655","569864","6738","570180","567113","567102","569864","6738","CogMod 2015 Experiment","18","5726","19","yes","1024"
"2","1200","150","16","95","95","301","301","white","no","xpyriment","legacy","legacy","0","uniform","1","1","m","0","0","0","0","0","139","0","NA","139","139","0","139","139","139","139","0","11/26/15 13:24:03","Default description","no","mono","no","18","black","Ok","768","legacy","C:/Users/Thomas/Documents/KI/subject-2016346.csv","xpyriment","Interactive Ising","3.0.2","0","m","z","NA","m","305","30462","NA","305","legacy","experiment","2016346","even","legacy","35900","496721","NA","NA","NA","573933","466259","NA","572398","573616","6738","573933","570881","570862","573616","6738","CogMod 2015 Experiment","19","6031","20","yes","1024"
"2","1600","-150","32","95.2380952381","95.2380952381","303","303","white","no","xpyriment","legacy","legacy","0","uniform","1","1","z","0","0","0","0","0","140","0","NA","140","140","0","140","140","140","140","0","11/26/15 13:24:03","Default description","no","mono","no","18","black","Ok","768","legacy","C:/Users/Thomas/Documents/KI/subject-2016346.csv","xpyriment","Interactive Ising","3.0.2","0","z","z","NA","z","344","30462","NA","344","legacy","experiment","2016346","even","legacy","35900","496721","NA","NA","NA","578135","466259","NA","576167","577785","6738","578135","574650","574629","577785","6738","CogMod 2015 Experiment","20","6375","21","yes","1024"
"2","1600","-150","32","95.4545454545","95.4545454545","302","302","white","no","xpyriment","legacy","legacy","0","uniform","1","1","z","0","0","0","0","0","141","0","NA","141","141","0","141","141","141","141","0","11/26/15 13:24:03","Default description","no","mono","no","18","black","Ok","768","legacy","C:/Users/Thomas/Documents/KI/subject-2016346.csv","xpyriment","Interactive Ising","3.0.2","0","z","z","NA","z","286","30462","NA","286","legacy","experiment","2016346","even","legacy","35900","496721","NA","NA","NA","582255","466259","NA","580337","581955","6738","582255","578819","578796","581954","6738","CogMod 2015 Experiment","21","6661","22","yes","1024"
"2","800","-150","8","95.652173913","95.652173913","304","304","white","no","xpyriment","legacy","legacy","0","uniform","1","1","z","0","0","0","0","0","142","0","NA","142","142","0","142","142","142","142","0","11/26/15 13:24:03","Default description","no","mono","no","18","black","Ok","768","legacy","C:/Users/Thomas/Documents/KI/subject-2016346.csv","xpyriment","Interactive Ising","3.0.2","0","z","z","NA","z","344","30462","NA","344","legacy","experiment","2016346","even","legacy","35900","496721","NA","NA","NA","585641","466259","NA","584473","585290","6738","585641","582955","582933","585290","6738","CogMod 2015 Experiment","22","7005","23","yes","1024"
"2","1200","-150","16","95.8333333333","95.8333333333","303","303","white","no","xpyriment","legacy","legacy","0","uniform","1","1","z","0","0","0","0","0","143","0","NA","143","143","0","143","143","143","143","0","11/26/15 13:24:03","Default description","no","mono","no","18","black","Ok","768","legacy","C:/Users/Thomas/Documents/KI/subject-2016346.csv","xpyriment","Interactive Ising","3.0.2","0","z","z","NA","z","284","30462","NA","284","legacy","experiment","2016346","even","legacy","35900","496721","NA","NA","NA","589377","466259","NA","587859","589077","6738","589377","586342","586330","589077","6738","CogMod 2015 Experiment","23","7289","24","yes","1024"
"2","400","-150","4","96","96","302","302","white","no","xpyriment","legacy","legacy","0","uniform","1","1","z","0","0","0","0","0","144","0","NA","144","144","0","144","144","144","144","0","11/26/15 13:24:03","Default description","no","mono","no","18","black","Ok","768","legacy","C:/Users/Thomas/Documents/KI/subject-2016346.csv","xpyriment","Interactive Ising","3.0.2","0","z","z","NA","z","277","30462","NA","277","legacy","experiment","2016346","even","legacy","35900","496721","NA","NA","NA","592295","466259","NA","591595","592012","6738","592295","590077","590063","592012","6738","CogMod 2015 Experiment","24","7566","25","yes","1024"
"2","1600","150","32","96.1538461538","96.1538461538","300","300","white","no","xpyriment","legacy","legacy","0","uniform","1","1","m","0","0","0","0","0","145","0","NA","145","145","0","145","145","145","145","0","11/26/15 13:24:03","Default description","no","mono","no","18","black","Ok","768","legacy","C:/Users/Thomas/Documents/KI/subject-2016346.csv","xpyriment","Interactive Ising","3.0.2","0","m","z","NA","m","254","30462","NA","254","legacy","experiment","2016346","even","legacy","35900","496721","NA","NA","NA","596398","466259","NA","594513","596131","6738","596398","592996","592975","596131","6738","CogMod 2015 Experiment","25","7820","26","yes","1024"
"2","800","150","8","96.2962962963","96.2962962963","300","300","white","no","xpyriment","legacy","legacy","0","uniform","1","1","m","0","0","0","0","0","146","0","NA","146","146","0","146","146","146","146","0","11/26/15 13:24:03","Default description","no","mono","no","18","black","Ok","768","legacy","C:/Users/Thomas/Documents/KI/subject-2016346.csv","xpyriment","Interactive Ising","3.0.2","0","m","z","NA","m","296","30462","NA","296","legacy","experiment","2016346","even","legacy","35900","496721","NA","NA","NA","599750","466259","NA","598616","599433","6738","599750","597098","597081","599433","6738","CogMod 2015 Experiment","26","8116","27","yes","1024"
"2","1600","-150","32","96.4285714286","96.4285714286","299","299","white","no","xpyriment","legacy","legacy","0","uniform","1","1","z","0","0","0","0","0","147","0","NA","147","147","0","147","147","147","147","0","11/26/15 13:24:03","Default description","no","mono","no","18","black","Ok","768","legacy","C:/Users/Thomas/Documents/KI/subject-2016346.csv","xpyriment","Interactive Ising","3.0.2","0","z","z","NA","z","272","30462","NA","272","legacy","experiment","2016346","even","legacy","35900","496721","NA","NA","NA","603853","466259","NA","601951","603570","6738","603854","600434","600416","603570","6738","CogMod 2015 Experiment","27","8388","28","yes","1024"
"2","1600","150","32","96.5517241379","96.5517241379","298","298","white","no","xpyriment","legacy","legacy","0","uniform","1","1","m","0","0","0","0","0","148","0","NA","148","148","0","148","148","148","148","0","11/26/15 13:24:03","Default description","no","mono","no","18","black","Ok","768","legacy","C:/Users/Thomas/Documents/KI/subject-2016346.csv","xpyriment","Interactive Ising","3.0.2","0","m","z","NA","m","264","30462","NA","264","legacy","experiment","2016346","even","legacy","35900","496721","NA","NA","NA","607973","466259","NA","606072","607689","6738","607973","604554","604534","607689","6738","CogMod 2015 Experiment","28","8652","29","yes","1024"
"2","1600","-150","32","96.6666666667","96.6666666667","297","297","white","no","xpyriment","legacy","legacy","0","uniform","1","1","z","0","0","0","0","0","149","0","NA","149","149","0","149","149","149","149","0","11/26/15 13:24:03","Default description","no","mono","no","18","black","Ok","768","legacy","C:/Users/Thomas/Documents/KI/subject-2016346.csv","xpyriment","Interactive Ising","3.0.2","0","z","z","NA","z","272","30462","NA","272","legacy","experiment","2016346","even","legacy","35900","496721","NA","NA","NA","612092","466259","NA","610191","611809","6738","612092","608673","608659","611808","6738","CogMod 2015 Experiment","29","8924","30","yes","1024"
"2","1200","150","16","96.7741935484","96.7741935484","296","296","white","no","xpyriment","legacy","legacy","0","uniform","1","1","m","0","0","0","0","0","150","0","NA","150","150","0","150","150","150","150","0","11/26/15 13:24:03","Default description","no","mono","no","18","black","Ok","768","legacy","C:/Users/Thomas/Documents/KI/subject-2016346.csv","xpyriment","Interactive Ising","3.0.2","0","m","z","NA","m","281","30462","NA","281","legacy","experiment","2016346","even","legacy","35900","496721","NA","NA","NA","615844","466259","NA","614327","615544","6738","615845","612809","612787","615544","6738","CogMod 2015 Experiment","30","9205","31","yes","1024"
