"Block","Foreperiod","Location","NumRep","acc","accuracy","average_response_time","avg_rt","background","bidi","canvas_backend","clock_backend","color_backend","compensation","coordinates","correct","correct_GetResponse","correct_response","count_Block_1","count_Block_2","count_Block_3","count_Block_4","count_Block_5","count_ClearScreen","count_Feedback","count_Feedback_Final","count_Fixation","count_GetResponse","count_Instructions1","count_LogData","count_PreTrialWait","count_SingleTrial","count_Stimulus","count_experiment","datetime","description","font_bold","font_family","font_italic","font_size","foreground","form_response","height","keyboard_backend","logfile","mouse_backend","opensesame_codename","opensesame_version","repeat_cycle","response","response_Feedback","response_Feedback_Final","response_GetResponse","response_time","response_time_Feedback","response_time_Feedback_Final","response_time_GetResponse","sampler_backend","start","subject_nr","subject_parity","synth_backend","time_Block_1","time_Block_2","time_Block_3","time_Block_4","time_Block_5","time_ClearScreen","time_Feedback","time_Feedback_Final","time_Fixation","time_GetResponse","time_Instructions1","time_LogData","time_PreTrialWait","time_SingleTrial","time_Stimulus","time_experiment","title","total_correct","total_response_time","total_responses","uniform_coordinates","width"
"1","1200","-150","15","100","100","359","359","white","no","xpyriment","legacy","legacy","0","uniform","1","1","z","0","0","0","0","0","0","NA","NA","0","0","0","0","0","0","0","0","11/29/15 15:26:34","Default description","no","mono","no","18","black","Ok","768","legacy","D:/Dropbox/Computational Modeling/Code/Week 4 - Experiment/subject-2203480.csv","xpyriment","Interactive Ising","3.0.4","0","z","NA","NA","z","359","NA","NA","359","legacy","experiment","2203480","even","legacy","155253","NA","NA","NA","NA","159222","NA","NA","157542","158759","3107","159222","156021","155999","158759","3107","CogMod 2015 Experiment","1","359","1","yes","1024"
"1","1200","150","15","100","100","316","316","white","no","xpyriment","legacy","legacy","0","uniform","1","1","m","0","0","0","0","0","1","NA","NA","1","1","0","1","1","1","1","0","11/29/15 15:26:34","Default description","no","mono","no","18","black","Ok","768","legacy","D:/Dropbox/Computational Modeling/Code/Week 4 - Experiment/subject-2203480.csv","xpyriment","Interactive Ising","3.0.4","0","m","NA","NA","m","273","NA","NA","273","legacy","experiment","2203480","even","legacy","155253","NA","NA","NA","NA","163655","NA","NA","162140","163358","3107","163655","160601","160577","163358","3107","CogMod 2015 Experiment","2","632","2","yes","1024"
"1","800","150","15","100","100","314","314","white","no","xpyriment","legacy","legacy","0","uniform","1","1","m","0","0","0","0","0","2","NA","NA","2","2","0","2","2","2","2","0","11/29/15 15:26:34","Default description","no","mono","no","18","black","Ok","768","legacy","D:/Dropbox/Computational Modeling/Code/Week 4 - Experiment/subject-2203480.csv","xpyriment","Interactive Ising","3.0.4","0","m","NA","NA","m","311","NA","NA","311","legacy","experiment","2203480","even","legacy","155253","NA","NA","NA","NA","167234","NA","NA","166084","166903","3107","167234","164564","164529","166903","3107","CogMod 2015 Experiment","3","943","3","yes","1024"
"1","1600","-150","15","100","100","310","310","white","no","xpyriment","legacy","legacy","0","uniform","1","1","z","0","0","0","0","0","3","NA","NA","3","3","0","3","3","3","3","0","11/29/15 15:26:34","Default description","no","mono","no","18","black","Ok","768","legacy","D:/Dropbox/Computational Modeling/Code/Week 4 - Experiment/subject-2203480.csv","xpyriment","Interactive Ising","3.0.4","0","z","NA","NA","z","298","NA","NA","298","legacy","experiment","2203480","even","legacy","155253","NA","NA","NA","NA","171753","NA","NA","169748","171436","3107","171753","168189","168130","171435","3107","CogMod 2015 Experiment","4","1241","4","yes","1024"
"1","1600","150","15","100","100","311","311","white","no","xpyriment","legacy","legacy","0","uniform","1","1","m","0","0","0","0","0","4","NA","NA","4","4","0","4","4","4","4","0","11/29/15 15:26:34","Default description","no","mono","no","18","black","Ok","768","legacy","D:/Dropbox/Computational Modeling/Code/Week 4 - Experiment/subject-2203480.csv","xpyriment","Interactive Ising","3.0.4","0","m","NA","NA","m","315","NA","NA","315","legacy","experiment","2203480","even","legacy","155253","NA","NA","NA","NA","176153","NA","NA","174196","175818","3107","176153","172677","172636","175818","3107","CogMod 2015 Experiment","5","1556","5","yes","1024"
"1","800","-150","15","100","100","352","352","white","no","xpyriment","legacy","legacy","0","uniform","1","1","z","0","0","0","0","0","5","NA","NA","5","5","0","5","5","5","5","0","11/29/15 15:26:34","Default description","no","mono","no","18","black","Ok","768","legacy","D:/Dropbox/Computational Modeling/Code/Week 4 - Experiment/subject-2203480.csv","xpyriment","Interactive Ising","3.0.4","0","z","NA","NA","z","556","NA","NA","556","legacy","experiment","2203480","even","legacy","155253","NA","NA","NA","NA","180064","NA","NA","178610","179466","3107","180064","177059","177036","179466","3107","CogMod 2015 Experiment","6","2112","6","yes","1024"
"1","1200","-150","15","100","100","350","350","white","no","xpyriment","legacy","legacy","0","uniform","1","1","z","0","0","0","0","0","6","NA","NA","6","6","0","6","6","6","6","0","11/29/15 15:26:34","Default description","no","mono","no","18","black","Ok","768","legacy","D:/Dropbox/Computational Modeling/Code/Week 4 - Experiment/subject-2203480.csv","xpyriment","Interactive Ising","3.0.4","0","z","NA","NA","z","343","NA","NA","343","legacy","experiment","2203480","even","legacy","155253","NA","NA","NA","NA","184137","NA","NA","182554","183775","3107","184137","181032","180950","183774","3107","CogMod 2015 Experiment","7","2455","7","yes","1024"
"1","800","150","15","100","100","344","344","white","no","xpyriment","legacy","legacy","0","uniform","1","1","m","0","0","0","0","0","7","NA","NA","7","7","0","7","7","7","7","0","11/29/15 15:26:34","Default description","no","mono","no","18","black","Ok","768","legacy","D:/Dropbox/Computational Modeling/Code/Week 4 - Experiment/subject-2203480.csv","xpyriment","Interactive Ising","3.0.4","0","m","NA","NA","m","297","NA","NA","297","legacy","experiment","2203480","even","legacy","155253","NA","NA","NA","NA","187782","NA","NA","186555","187405","3107","187783","185003","184979","187405","3107","CogMod 2015 Experiment","8","2752","8","yes","1024"
"1","1600","-150","15","100","100","339","339","white","no","xpyriment","legacy","legacy","0","uniform","1","1","z","0","0","0","0","0","8","NA","NA","8","8","0","8","8","8","8","0","11/29/15 15:26:34","Default description","no","mono","no","18","black","Ok","768","legacy","D:/Dropbox/Computational Modeling/Code/Week 4 - Experiment/subject-2203480.csv","xpyriment","Interactive Ising","3.0.4","0","z","NA","NA","z","305","NA","NA","305","legacy","experiment","2203480","even","legacy","155253","NA","NA","NA","NA","192177","NA","NA","190235","191853","3107","192177","188716","188679","191853","3107","CogMod 2015 Experiment","9","3057","9","yes","1024"
"1","1600","150","15","100","100","337","337","white","no","xpyriment","legacy","legacy","0","uniform","1","1","m","0","0","0","0","0","9","NA","NA","9","9","0","9","9","9","9","0","11/29/15 15:26:34","Default description","no","mono","no","18","black","Ok","768","legacy","D:/Dropbox/Computational Modeling/Code/Week 4 - Experiment/subject-2203480.csv","xpyriment","Interactive Ising","3.0.4","0","m","NA","NA","m","315","NA","NA","315","legacy","experiment","2203480","even","legacy","155253","NA","NA","NA","NA","196507","NA","NA","194552","196171","3107","196507","193034","193015","196171","3107","CogMod 2015 Experiment","10","3372","10","yes","1024"
"1","400","-150","15","100","100","339","339","white","no","xpyriment","legacy","legacy","0","uniform","1","1","z","0","0","0","0","0","10","NA","NA","10","10","0","10","10","10","10","0","11/29/15 15:26:34","Default description","no","mono","no","18","black","Ok","768","legacy","D:/Dropbox/Computational Modeling/Code/Week 4 - Experiment/subject-2203480.csv","xpyriment","Interactive Ising","3.0.4","0","z","NA","NA","z","367","NA","NA","367","legacy","experiment","2203480","even","legacy","155253","NA","NA","NA","NA","199713","NA","NA","198908","199327","3107","199714","197388","197369","199327","3107","CogMod 2015 Experiment","11","3739","11","yes","1024"
"1","800","-150","15","100","100","337","337","white","no","xpyriment","legacy","legacy","0","uniform","1","1","z","0","0","0","0","0","11","NA","NA","11","11","0","11","11","11","11","0","11/29/15 15:26:34","Default description","no","mono","no","18","black","Ok","768","legacy","D:/Dropbox/Computational Modeling/Code/Week 4 - Experiment/subject-2203480.csv","xpyriment","Interactive Ising","3.0.4","0","z","NA","NA","z","315","NA","NA","315","legacy","experiment","2203480","even","legacy","155253","NA","NA","NA","NA","203258","NA","NA","202103","202923","3107","203258","200585","200565","202923","3107","CogMod 2015 Experiment","12","4054","12","yes","1024"
"1","400","150","15","100","100","334","334","white","no","xpyriment","legacy","legacy","0","uniform","1","1","m","0","0","0","0","0","12","NA","NA","12","12","0","12","12","12","12","0","11/29/15 15:26:34","Default description","no","mono","no","18","black","Ok","768","legacy","D:/Dropbox/Computational Modeling/Code/Week 4 - Experiment/subject-2203480.csv","xpyriment","Interactive Ising","3.0.4","0","m","NA","NA","m","291","NA","NA","291","legacy","experiment","2203480","even","legacy","155253","NA","NA","NA","NA","206377","NA","NA","205647","206066","3107","206377","204129","204109","206065","3107","CogMod 2015 Experiment","13","4345","13","yes","1024"
"1","1600","-150","15","100","100","327","327","white","no","xpyriment","legacy","legacy","0","uniform","1","1","z","0","0","0","0","0","13","NA","NA","13","13","0","13","13","13","13","0","11/29/15 15:26:34","Default description","no","mono","no","18","black","Ok","768","legacy","D:/Dropbox/Computational Modeling/Code/Week 4 - Experiment/subject-2203480.csv","xpyriment","Interactive Ising","3.0.4","0","z","NA","NA","z","244","NA","NA","244","legacy","experiment","2203480","even","legacy","155253","NA","NA","NA","NA","210633","NA","NA","208751","210370","3107","210633","207231","207212","210370","3107","CogMod 2015 Experiment","14","4589","14","yes","1024"
"1","800","-150","15","100","100","325","325","white","no","xpyriment","legacy","legacy","0","uniform","1","1","z","0","0","0","0","0","14","NA","NA","14","14","0","14","14","14","14","0","11/29/15 15:26:34","Default description","no","mono","no","18","black","Ok","768","legacy","D:/Dropbox/Computational Modeling/Code/Week 4 - Experiment/subject-2203480.csv","xpyriment","Interactive Ising","3.0.4","0","z","NA","NA","z","299","NA","NA","299","legacy","experiment","2203480","even","legacy","155253","NA","NA","NA","NA","214176","NA","NA","213038","213859","3107","214177","211517","211498","213859","3107","CogMod 2015 Experiment","15","4888","15","yes","1024"
"1","400","-150","15","100","100","324","324","white","no","xpyriment","legacy","legacy","0","uniform","1","1","z","0","0","0","0","0","15","NA","NA","15","15","0","15","15","15","15","0","11/29/15 15:26:34","Default description","no","mono","no","18","black","Ok","768","legacy","D:/Dropbox/Computational Modeling/Code/Week 4 - Experiment/subject-2203480.csv","xpyriment","Interactive Ising","3.0.4","0","z","NA","NA","z","303","NA","NA","303","legacy","experiment","2203480","even","legacy","155253","NA","NA","NA","NA","217311","NA","NA","216573","216991","3107","217311","215053","215031","216991","3107","CogMod 2015 Experiment","16","5191","16","yes","1024"
"1","1200","150","15","100","100","322","322","white","no","xpyriment","legacy","legacy","0","uniform","1","1","m","0","0","0","0","0","16","NA","NA","16","16","0","16","16","16","16","0","11/29/15 15:26:34","Default description","no","mono","no","18","black","Ok","768","legacy","D:/Dropbox/Computational Modeling/Code/Week 4 - Experiment/subject-2203480.csv","xpyriment","Interactive Ising","3.0.4","0","m","NA","NA","m","299","NA","NA","299","legacy","experiment","2203480","even","legacy","155253","NA","NA","NA","NA","221216","NA","NA","219681","220898","3107","221216","218161","218138","220898","3107","CogMod 2015 Experiment","17","5490","17","yes","1024"
"1","1200","-150","15","100","100","322","322","white","no","xpyriment","legacy","legacy","0","uniform","1","1","z","0","0","0","0","0","17","NA","NA","17","17","0","17","17","17","17","0","11/29/15 15:26:34","Default description","no","mono","no","18","black","Ok","768","legacy","D:/Dropbox/Computational Modeling/Code/Week 4 - Experiment/subject-2203480.csv","xpyriment","Interactive Ising","3.0.4","0","z","NA","NA","z","316","NA","NA","316","legacy","experiment","2203480","even","legacy","155253","NA","NA","NA","NA","225232","NA","NA","223611","224898","3107","225232","222091","222048","224898","3107","CogMod 2015 Experiment","18","5806","18","yes","1024"
"1","1200","-150","15","100","100","319","319","white","no","xpyriment","legacy","legacy","0","uniform","1","1","z","0","0","0","0","0","18","NA","NA","18","18","0","18","18","18","18","0","11/29/15 15:26:34","Default description","no","mono","no","18","black","Ok","768","legacy","D:/Dropbox/Computational Modeling/Code/Week 4 - Experiment/subject-2203480.csv","xpyriment","Interactive Ising","3.0.4","0","z","NA","NA","z","262","NA","NA","262","legacy","experiment","2203480","even","legacy","155253","NA","NA","NA","NA","229215","NA","NA","227717","228935","3107","229215","226199","226151","228935","3107","CogMod 2015 Experiment","19","6068","19","yes","1024"
"1","800","-150","15","100","100","319","319","white","no","xpyriment","legacy","legacy","0","uniform","1","1","z","0","0","0","0","0","19","NA","NA","19","19","0","19","19","19","19","0","11/29/15 15:26:34","Default description","no","mono","no","18","black","Ok","768","legacy","D:/Dropbox/Computational Modeling/Code/Week 4 - Experiment/subject-2203480.csv","xpyriment","Interactive Ising","3.0.4","0","z","NA","NA","z","328","NA","NA","328","legacy","experiment","2203480","even","legacy","155253","NA","NA","NA","NA","232911","NA","NA","231672","232565","3107","232911","230142","230120","232565","3107","CogMod 2015 Experiment","20","6396","20","yes","1024"
"1","1200","150","15","100","100","318","318","white","no","xpyriment","legacy","legacy","0","uniform","1","1","m","0","0","0","0","0","20","NA","NA","20","20","0","20","20","20","20","0","11/29/15 15:26:34","Default description","no","mono","no","18","black","Ok","768","legacy","D:/Dropbox/Computational Modeling/Code/Week 4 - Experiment/subject-2203480.csv","xpyriment","Interactive Ising","3.0.4","0","m","NA","NA","m","288","NA","NA","288","legacy","experiment","2203480","even","legacy","155253","NA","NA","NA","NA","236895","NA","NA","235373","236590","3107","236896","233854","233800","236590","3107","CogMod 2015 Experiment","21","6684","21","yes","1024"
"1","1600","-150","15","100","100","316","316","white","no","xpyriment","legacy","legacy","0","uniform","1","1","z","0","0","0","0","0","21","NA","NA","21","21","0","21","21","21","21","0","11/29/15 15:26:34","Default description","no","mono","no","18","black","Ok","768","legacy","D:/Dropbox/Computational Modeling/Code/Week 4 - Experiment/subject-2203480.csv","xpyriment","Interactive Ising","3.0.4","0","z","NA","NA","z","271","NA","NA","271","legacy","experiment","2203480","even","legacy","155253","NA","NA","NA","NA","241224","NA","NA","239317","240934","3107","241224","237798","237778","240934","3107","CogMod 2015 Experiment","22","6955","22","yes","1024"
"1","1600","-150","15","100","100","313","313","white","no","xpyriment","legacy","legacy","0","uniform","1","1","z","0","0","0","0","0","22","NA","NA","22","22","0","22","22","22","22","0","11/29/15 15:26:34","Default description","no","mono","no","18","black","Ok","768","legacy","D:/Dropbox/Computational Modeling/Code/Week 4 - Experiment/subject-2203480.csv","xpyriment","Interactive Ising","3.0.4","0","z","NA","NA","z","260","NA","NA","260","legacy","experiment","2203480","even","legacy","155253","NA","NA","NA","NA","245569","NA","NA","243653","245281","3107","245569","242127","242093","245281","3107","CogMod 2015 Experiment","23","7215","23","yes","1024"
"1","1200","150","15","100","100","312","312","white","no","xpyriment","legacy","legacy","0","uniform","1","1","m","0","0","0","0","0","23","NA","NA","23","23","0","23","23","23","23","0","11/29/15 15:26:34","Default description","no","mono","no","18","black","Ok","768","legacy","D:/Dropbox/Computational Modeling/Code/Week 4 - Experiment/subject-2203480.csv","xpyriment","Interactive Ising","3.0.4","0","m","NA","NA","m","291","NA","NA","291","legacy","experiment","2203480","even","legacy","155253","NA","NA","NA","NA","250538","NA","NA","249009","250227","3107","250538","247489","247458","250227","3107","CogMod 2015 Experiment","24","7506","24","yes","1024"
"1","1600","-150","15","100","100","311","311","white","no","xpyriment","legacy","legacy","0","uniform","1","1","z","0","0","0","0","0","24","NA","NA","24","24","0","24","24","24","24","0","11/29/15 15:26:34","Default description","no","mono","no","18","black","Ok","768","legacy","D:/Dropbox/Computational Modeling/Code/Week 4 - Experiment/subject-2203480.csv","xpyriment","Interactive Ising","3.0.4","0","z","NA","NA","z","287","NA","NA","287","legacy","experiment","2203480","even","legacy","155253","NA","NA","NA","NA","255369","NA","NA","253426","255054","3107","255370","251900","251867","255053","3107","CogMod 2015 Experiment","25","7793","25","yes","1024"
"1","1200","150","15","100","100","309","309","white","no","xpyriment","legacy","legacy","0","uniform","1","1","m","0","0","0","0","0","25","NA","NA","25","25","0","25","25","25","25","0","11/29/15 15:26:34","Default description","no","mono","no","18","black","Ok","768","legacy","D:/Dropbox/Computational Modeling/Code/Week 4 - Experiment/subject-2203480.csv","xpyriment","Interactive Ising","3.0.4","0","m","NA","NA","m","261","NA","NA","261","legacy","experiment","2203480","even","legacy","155253","NA","NA","NA","NA","259769","NA","NA","258267","259488","3107","259769","256743","256714","259488","3107","CogMod 2015 Experiment","26","8054","26","yes","1024"
"1","400","150","15","100","100","311","311","white","no","xpyriment","legacy","legacy","0","uniform","1","1","m","0","0","0","0","0","26","NA","NA","26","26","0","26","26","26","26","0","11/29/15 15:26:34","Default description","no","mono","no","18","black","Ok","768","legacy","D:/Dropbox/Computational Modeling/Code/Week 4 - Experiment/subject-2203480.csv","xpyriment","Interactive Ising","3.0.4","0","m","NA","NA","m","348","NA","NA","348","legacy","experiment","2203480","even","legacy","155253","NA","NA","NA","NA","263001","NA","NA","262197","262625","3107","263002","260668","260644","262625","3107","CogMod 2015 Experiment","27","8402","27","yes","1024"
"1","1600","150","15","100","100","311","311","white","no","xpyriment","legacy","legacy","0","uniform","1","1","m","0","0","0","0","0","27","NA","NA","27","27","0","27","27","27","27","0","11/29/15 15:26:34","Default description","no","mono","no","18","black","Ok","768","legacy","D:/Dropbox/Computational Modeling/Code/Week 4 - Experiment/subject-2203480.csv","xpyriment","Interactive Ising","3.0.4","0","m","NA","NA","m","311","NA","NA","311","legacy","experiment","2203480","even","legacy","155253","NA","NA","NA","NA","267394","NA","NA","265437","267054","3107","267394","263921","263886","267053","3107","CogMod 2015 Experiment","28","8713","28","yes","1024"
"1","400","150","15","100","100","311","311","white","no","xpyriment","legacy","legacy","0","uniform","1","1","m","0","0","0","0","0","28","NA","NA","28","28","0","28","28","28","28","0","11/29/15 15:26:34","Default description","no","mono","no","18","black","Ok","768","legacy","D:/Dropbox/Computational Modeling/Code/Week 4 - Experiment/subject-2203480.csv","xpyriment","Interactive Ising","3.0.4","0","m","NA","NA","m","322","NA","NA","322","legacy","experiment","2203480","even","legacy","155253","NA","NA","NA","NA","270609","NA","NA","269832","270259","3107","270609","268305","268268","270258","3107","CogMod 2015 Experiment","29","9035","29","yes","1024"
"1","800","-150","15","100","100","310","310","white","no","xpyriment","legacy","legacy","0","uniform","1","1","z","0","0","0","0","0","29","NA","NA","29","29","0","29","29","29","29","0","11/29/15 15:26:34","Default description","no","mono","no","18","black","Ok","768","legacy","D:/Dropbox/Computational Modeling/Code/Week 4 - Experiment/subject-2203480.csv","xpyriment","Interactive Ising","3.0.4","0","z","NA","NA","z","278","NA","NA","278","legacy","experiment","2203480","even","legacy","155253","NA","NA","NA","NA","274170","NA","NA","273045","273862","3107","274170","271528","271494","273862","3107","CogMod 2015 Experiment","30","9313","30","yes","1024"
"1","800","150","15","100","100","308","308","white","no","xpyriment","legacy","legacy","0","uniform","1","1","m","0","0","0","0","0","30","NA","NA","30","30","0","30","30","30","30","0","11/29/15 15:26:34","Default description","no","mono","no","18","black","Ok","768","legacy","D:/Dropbox/Computational Modeling/Code/Week 4 - Experiment/subject-2203480.csv","xpyriment","Interactive Ising","3.0.4","0","m","NA","NA","m","254","NA","NA","254","legacy","experiment","2203480","even","legacy","155253","NA","NA","NA","NA","277728","NA","NA","276629","277447","3107","277728","275101","275078","277447","3107","CogMod 2015 Experiment","31","9567","31","yes","1024"
"1","800","-150","15","100","100","307","307","white","no","xpyriment","legacy","legacy","0","uniform","1","1","z","0","0","0","0","0","31","NA","NA","31","31","0","31","31","31","31","0","11/29/15 15:26:34","Default description","no","mono","no","18","black","Ok","768","legacy","D:/Dropbox/Computational Modeling/Code/Week 4 - Experiment/subject-2203480.csv","xpyriment","Interactive Ising","3.0.4","0","z","NA","NA","z","272","NA","NA","272","legacy","experiment","2203480","even","legacy","155253","NA","NA","NA","NA","281344","NA","NA","280234","281053","3107","281344","278715","278678","281053","3107","CogMod 2015 Experiment","32","9839","32","yes","1024"
"1","400","-150","15","100","100","315","315","white","no","xpyriment","legacy","legacy","0","uniform","1","1","z","0","0","0","0","0","32","NA","NA","32","32","0","32","32","32","32","0","11/29/15 15:26:34","Default description","no","mono","no","18","black","Ok","768","legacy","D:/Dropbox/Computational Modeling/Code/Week 4 - Experiment/subject-2203480.csv","xpyriment","Interactive Ising","3.0.4","0","z","NA","NA","z","559","NA","NA","559","legacy","experiment","2203480","even","legacy","155253","NA","NA","NA","NA","284665","NA","NA","283667","284085","3107","284665","282147","282129","284085","3107","CogMod 2015 Experiment","33","10398","33","yes","1024"
"1","800","-150","15","100","100","313","313","white","no","xpyriment","legacy","legacy","0","uniform","1","1","z","0","0","0","0","0","33","NA","NA","33","33","0","33","33","33","33","0","11/29/15 15:26:34","Default description","no","mono","no","18","black","Ok","768","legacy","D:/Dropbox/Computational Modeling/Code/Week 4 - Experiment/subject-2203480.csv","xpyriment","Interactive Ising","3.0.4","0","z","NA","NA","z","254","NA","NA","254","legacy","experiment","2203480","even","legacy","155253","NA","NA","NA","NA","288121","NA","NA","287029","287846","3107","288121","285509","285491","287846","3107","CogMod 2015 Experiment","34","10652","34","yes","1024"
"1","1200","150","15","100","100","315","315","white","no","xpyriment","legacy","legacy","0","uniform","1","1","m","0","0","0","0","0","34","NA","NA","34","34","0","34","34","34","34","0","11/29/15 15:26:34","Default description","no","mono","no","18","black","Ok","768","legacy","D:/Dropbox/Computational Modeling/Code/Week 4 - Experiment/subject-2203480.csv","xpyriment","Interactive Ising","3.0.4","0","m","NA","NA","m","378","NA","NA","378","legacy","experiment","2203480","even","legacy","155253","NA","NA","NA","NA","292119","NA","NA","290505","291722","3107","292119","288988","288968","291722","3107","CogMod 2015 Experiment","35","11030","35","yes","1024"
"1","800","-150","15","100","100","314","314","white","no","xpyriment","legacy","legacy","0","uniform","1","1","z","0","0","0","0","0","35","NA","NA","35","35","0","35","35","35","35","0","11/29/15 15:26:34","Default description","no","mono","no","18","black","Ok","768","legacy","D:/Dropbox/Computational Modeling/Code/Week 4 - Experiment/subject-2203480.csv","xpyriment","Interactive Ising","3.0.4","0","z","NA","NA","z","282","NA","NA","282","legacy","experiment","2203480","even","legacy","155253","NA","NA","NA","NA","295624","NA","NA","294503","295322","3107","295625","292983","292963","295322","3107","CogMod 2015 Experiment","36","11312","36","yes","1024"
"1","1200","150","15","100","100","312","312","white","no","xpyriment","legacy","legacy","0","uniform","1","1","m","0","0","0","0","0","36","NA","NA","36","36","0","36","36","36","36","0","11/29/15 15:26:34","Default description","no","mono","no","18","black","Ok","768","legacy","D:/Dropbox/Computational Modeling/Code/Week 4 - Experiment/subject-2203480.csv","xpyriment","Interactive Ising","3.0.4","0","m","NA","NA","m","245","NA","NA","245","legacy","experiment","2203480","even","legacy","155253","NA","NA","NA","NA","299480","NA","NA","297998","299216","3107","299481","296477","296459","299216","3107","CogMod 2015 Experiment","37","11557","37","yes","1024"
"1","1200","-150","15","100","100","311","311","white","no","xpyriment","legacy","legacy","0","uniform","1","1","z","0","0","0","0","0","37","NA","NA","37","37","0","37","37","37","37","0","11/29/15 15:26:34","Default description","no","mono","no","18","black","Ok","768","legacy","D:/Dropbox/Computational Modeling/Code/Week 4 - Experiment/subject-2203480.csv","xpyriment","Interactive Ising","3.0.4","0","z","NA","NA","z","269","NA","NA","269","legacy","experiment","2203480","even","legacy","155253","NA","NA","NA","NA","303344","NA","NA","301837","303055","3107","303344","300318","300299","303055","3107","CogMod 2015 Experiment","38","11826","38","yes","1024"
"1","800","150","15","100","100","311","311","white","no","xpyriment","legacy","legacy","0","uniform","1","1","m","0","0","0","0","0","38","NA","NA","38","38","0","38","38","38","38","0","11/29/15 15:26:34","Default description","no","mono","no","18","black","Ok","768","legacy","D:/Dropbox/Computational Modeling/Code/Week 4 - Experiment/subject-2203480.csv","xpyriment","Interactive Ising","3.0.4","0","m","NA","NA","m","305","NA","NA","305","legacy","experiment","2203480","even","legacy","155253","NA","NA","NA","NA","306840","NA","NA","305698","306515","3107","306841","304178","304160","306515","3107","CogMod 2015 Experiment","39","12131","39","yes","1024"
"1","1200","-150","15","100","100","310","310","white","no","xpyriment","legacy","legacy","0","uniform","1","1","z","0","0","0","0","0","39","NA","NA","39","39","0","39","39","39","39","0","11/29/15 15:26:34","Default description","no","mono","no","18","black","Ok","768","legacy","D:/Dropbox/Computational Modeling/Code/Week 4 - Experiment/subject-2203480.csv","xpyriment","Interactive Ising","3.0.4","0","z","NA","NA","z","282","NA","NA","282","legacy","experiment","2203480","even","legacy","155253","NA","NA","NA","NA","310768","NA","NA","309249","310467","3107","310768","307730","307711","310467","3107","CogMod 2015 Experiment","40","12413","40","yes","1024"
"1","1600","150","15","100","100","309","309","white","no","xpyriment","legacy","legacy","0","uniform","1","1","m","0","0","0","0","0","40","NA","NA","40","40","0","40","40","40","40","0","11/29/15 15:26:34","Default description","no","mono","no","18","black","Ok","768","legacy","D:/Dropbox/Computational Modeling/Code/Week 4 - Experiment/subject-2203480.csv","xpyriment","Interactive Ising","3.0.4","0","m","NA","NA","m","284","NA","NA","284","legacy","experiment","2203480","even","legacy","155253","NA","NA","NA","NA","315072","NA","NA","313150","314768","3107","315072","311632","311613","314768","3107","CogMod 2015 Experiment","41","12697","41","yes","1024"
"1","800","-150","15","100","100","308","308","white","no","xpyriment","legacy","legacy","0","uniform","1","1","z","0","0","0","0","0","41","NA","NA","41","41","0","41","41","41","41","0","11/29/15 15:26:34","Default description","no","mono","no","18","black","Ok","768","legacy","D:/Dropbox/Computational Modeling/Code/Week 4 - Experiment/subject-2203480.csv","xpyriment","Interactive Ising","3.0.4","0","z","NA","NA","z","276","NA","NA","276","legacy","experiment","2203480","even","legacy","155253","NA","NA","NA","NA","318568","NA","NA","317454","318273","3107","318568","315934","315916","318273","3107","CogMod 2015 Experiment","42","12973","42","yes","1024"
"1","800","150","15","100","100","307","307","white","no","xpyriment","legacy","legacy","0","uniform","1","1","m","0","0","0","0","0","42","NA","NA","42","42","0","42","42","42","42","0","11/29/15 15:26:34","Default description","no","mono","no","18","black","Ok","768","legacy","D:/Dropbox/Computational Modeling/Code/Week 4 - Experiment/subject-2203480.csv","xpyriment","Interactive Ising","3.0.4","0","m","NA","NA","m","244","NA","NA","244","legacy","experiment","2203480","even","legacy","155253","NA","NA","NA","NA","322056","NA","NA","320972","321792","3107","322056","319452","319431","321792","3107","CogMod 2015 Experiment","43","13217","43","yes","1024"
"1","800","150","15","100","100","309","309","white","no","xpyriment","legacy","legacy","0","uniform","1","1","m","0","0","0","0","0","43","NA","NA","43","43","0","43","43","43","43","0","11/29/15 15:26:34","Default description","no","mono","no","18","black","Ok","768","legacy","D:/Dropbox/Computational Modeling/Code/Week 4 - Experiment/subject-2203480.csv","xpyriment","Interactive Ising","3.0.4","0","m","NA","NA","m","386","NA","NA","386","legacy","experiment","2203480","even","legacy","155253","NA","NA","NA","NA","325657","NA","NA","324431","325250","3107","325657","322913","322893","325250","3107","CogMod 2015 Experiment","44","13603","44","yes","1024"
"1","1200","-150","15","100","100","308","308","white","no","xpyriment","legacy","legacy","0","uniform","1","1","z","0","0","0","0","0","44","NA","NA","44","44","0","44","44","44","44","0","11/29/15 15:26:34","Default description","no","mono","no","18","black","Ok","768","legacy","D:/Dropbox/Computational Modeling/Code/Week 4 - Experiment/subject-2203480.csv","xpyriment","Interactive Ising","3.0.4","0","z","NA","NA","z","270","NA","NA","270","legacy","experiment","2203480","even","legacy","155253","NA","NA","NA","NA","329545","NA","NA","328035","329254","3107","329545","326511","326494","329254","3107","CogMod 2015 Experiment","45","13873","45","yes","1024"
"1","1200","-150","15","100","100","307","307","white","no","xpyriment","legacy","legacy","0","uniform","1","1","z","0","0","0","0","0","45","NA","NA","45","45","0","45","45","45","45","0","11/29/15 15:26:34","Default description","no","mono","no","18","black","Ok","768","legacy","D:/Dropbox/Computational Modeling/Code/Week 4 - Experiment/subject-2203480.csv","xpyriment","Interactive Ising","3.0.4","0","z","NA","NA","z","278","NA","NA","278","legacy","experiment","2203480","even","legacy","155253","NA","NA","NA","NA","333448","NA","NA","331932","333150","3107","333448","330414","330394","333150","3107","CogMod 2015 Experiment","46","14151","46","yes","1024"
"1","400","150","15","100","100","308","308","white","no","xpyriment","legacy","legacy","0","uniform","1","1","m","0","0","0","0","0","46","NA","NA","46","46","0","46","46","46","46","0","11/29/15 15:26:34","Default description","no","mono","no","18","black","Ok","768","legacy","D:/Dropbox/Computational Modeling/Code/Week 4 - Experiment/subject-2203480.csv","xpyriment","Interactive Ising","3.0.4","0","m","NA","NA","m","362","NA","NA","362","legacy","experiment","2203480","even","legacy","155253","NA","NA","NA","NA","336615","NA","NA","335815","336234","3107","336616","334297","334267","336233","3107","CogMod 2015 Experiment","47","14513","47","yes","1024"
"1","800","150","15","100","100","310","310","white","no","xpyriment","legacy","legacy","0","uniform","1","1","m","0","0","0","0","0","47","NA","NA","47","47","0","47","47","47","47","0","11/29/15 15:26:34","Default description","no","mono","no","18","black","Ok","768","legacy","D:/Dropbox/Computational Modeling/Code/Week 4 - Experiment/subject-2203480.csv","xpyriment","Interactive Ising","3.0.4","0","m","NA","NA","m","373","NA","NA","373","legacy","experiment","2203480","even","legacy","155253","NA","NA","NA","NA","340233","NA","NA","339001","339831","3107","340233","337471","337444","339831","3107","CogMod 2015 Experiment","48","14886","48","yes","1024"
"1","1600","-150","15","100","100","310","310","white","no","xpyriment","legacy","legacy","0","uniform","1","1","z","0","0","0","0","0","48","NA","NA","48","48","0","48","48","48","48","0","11/29/15 15:26:34","Default description","no","mono","no","18","black","Ok","768","legacy","D:/Dropbox/Computational Modeling/Code/Week 4 - Experiment/subject-2203480.csv","xpyriment","Interactive Ising","3.0.4","0","z","NA","NA","z","313","NA","NA","313","legacy","experiment","2203480","even","legacy","155253","NA","NA","NA","NA","344639","NA","NA","342690","344307","3107","344639","341172","341142","344307","3107","CogMod 2015 Experiment","49","15199","49","yes","1024"
"1","1600","-150","15","100","100","309","309","white","no","xpyriment","legacy","legacy","0","uniform","1","1","z","0","0","0","0","0","49","NA","NA","49","49","0","49","49","49","49","0","11/29/15 15:26:34","Default description","no","mono","no","18","black","Ok","768","legacy","D:/Dropbox/Computational Modeling/Code/Week 4 - Experiment/subject-2203480.csv","xpyriment","Interactive Ising","3.0.4","0","z","NA","NA","z","295","NA","NA","295","legacy","experiment","2203480","even","legacy","155253","NA","NA","NA","NA","348983","NA","NA","347034","348661","3107","348983","345506","345482","348661","3107","CogMod 2015 Experiment","50","15494","50","yes","1024"
"1","1600","-150","15","100","100","309","309","white","no","xpyriment","legacy","legacy","0","uniform","1","1","z","0","0","0","0","0","50","NA","NA","50","50","0","50","50","50","50","0","11/29/15 15:26:34","Default description","no","mono","no","18","black","Ok","768","legacy","D:/Dropbox/Computational Modeling/Code/Week 4 - Experiment/subject-2203480.csv","xpyriment","Interactive Ising","3.0.4","0","z","NA","NA","z","302","NA","NA","302","legacy","experiment","2203480","even","legacy","155253","NA","NA","NA","NA","353377","NA","NA","351435","353054","3107","353377","349915","349884","353054","3107","CogMod 2015 Experiment","51","15796","51","yes","1024"
"1","800","-150","15","100","100","311","311","white","no","xpyriment","legacy","legacy","0","uniform","1","1","z","0","0","0","0","0","51","NA","NA","51","51","0","51","51","51","51","0","11/29/15 15:26:34","Default description","no","mono","no","18","black","Ok","768","legacy","D:/Dropbox/Computational Modeling/Code/Week 4 - Experiment/subject-2203480.csv","xpyriment","Interactive Ising","3.0.4","0","z","NA","NA","z","411","NA","NA","411","legacy","experiment","2203480","even","legacy","155253","NA","NA","NA","NA","357096","NA","NA","355815","356649","3107","357096","354289","354256","356649","3107","CogMod 2015 Experiment","52","16207","52","yes","1024"
"1","1600","150","15","100","100","311","311","white","no","xpyriment","legacy","legacy","0","uniform","1","1","m","0","0","0","0","0","52","NA","NA","52","52","0","52","52","52","52","0","11/29/15 15:26:34","Default description","no","mono","no","18","black","Ok","768","legacy","D:/Dropbox/Computational Modeling/Code/Week 4 - Experiment/subject-2203480.csv","xpyriment","Interactive Ising","3.0.4","0","m","NA","NA","m","323","NA","NA","323","legacy","experiment","2203480","even","legacy","155253","NA","NA","NA","NA","361566","NA","NA","359600","361217","3107","361566","358082","358049","361217","3107","CogMod 2015 Experiment","53","16530","53","yes","1024"
"1","800","150","15","100","100","313","313","white","no","xpyriment","legacy","legacy","0","uniform","1","1","m","0","0","0","0","0","53","NA","NA","53","53","0","53","53","53","53","0","11/29/15 15:26:34","Default description","no","mono","no","18","black","Ok","768","legacy","D:/Dropbox/Computational Modeling/Code/Week 4 - Experiment/subject-2203480.csv","xpyriment","Interactive Ising","3.0.4","0","m","NA","NA","m","397","NA","NA","397","legacy","experiment","2203480","even","legacy","155253","NA","NA","NA","NA","365287","NA","NA","364024","364855","3107","365287","362496","362462","364855","3107","CogMod 2015 Experiment","54","16927","54","yes","1024"
"1","1200","150","15","100","100","314","314","white","no","xpyriment","legacy","legacy","0","uniform","1","1","m","0","0","0","0","0","54","NA","NA","54","54","0","54","54","54","54","0","11/29/15 15:26:34","Default description","no","mono","no","18","black","Ok","768","legacy","D:/Dropbox/Computational Modeling/Code/Week 4 - Experiment/subject-2203480.csv","xpyriment","Interactive Ising","3.0.4","0","m","NA","NA","m","354","NA","NA","354","legacy","experiment","2203480","even","legacy","155253","NA","NA","NA","NA","369378","NA","NA","367781","369001","3107","369378","366261","366229","369001","3107","CogMod 2015 Experiment","55","17281","55","yes","1024"
"1","400","-150","15","100","100","315","315","white","no","xpyriment","legacy","legacy","0","uniform","1","1","z","0","0","0","0","0","55","NA","NA","55","55","0","55","55","55","55","0","11/29/15 15:26:34","Default description","no","mono","no","18","black","Ok","768","legacy","D:/Dropbox/Computational Modeling/Code/Week 4 - Experiment/subject-2203480.csv","xpyriment","Interactive Ising","3.0.4","0","z","NA","NA","z","377","NA","NA","377","legacy","experiment","2203480","even","legacy","155253","NA","NA","NA","NA","372575","NA","NA","371760","372178","3107","372575","370241","370222","372178","3107","CogMod 2015 Experiment","56","17658","56","yes","1024"
"1","1200","-150","15","100","100","315","315","white","no","xpyriment","legacy","legacy","0","uniform","1","1","z","0","0","0","0","0","56","NA","NA","56","56","0","56","56","56","56","0","11/29/15 15:26:34","Default description","no","mono","no","18","black","Ok","768","legacy","D:/Dropbox/Computational Modeling/Code/Week 4 - Experiment/subject-2203480.csv","xpyriment","Interactive Ising","3.0.4","0","z","NA","NA","z","319","NA","NA","319","legacy","experiment","2203480","even","legacy","155253","NA","NA","NA","NA","376527","NA","NA","374971","376189","3107","376527","373452","373432","376189","3107","CogMod 2015 Experiment","57","17977","57","yes","1024"
"1","800","150","15","100","100","314","314","white","no","xpyriment","legacy","legacy","0","uniform","1","1","m","0","0","0","0","0","57","NA","NA","57","57","0","57","57","57","57","0","11/29/15 15:26:34","Default description","no","mono","no","18","black","Ok","768","legacy","D:/Dropbox/Computational Modeling/Code/Week 4 - Experiment/subject-2203480.csv","xpyriment","Interactive Ising","3.0.4","0","m","NA","NA","m","278","NA","NA","278","legacy","experiment","2203480","even","legacy","155253","NA","NA","NA","NA","380007","NA","NA","378893","379710","3107","380007","377374","377355","379710","3107","CogMod 2015 Experiment","58","18255","58","yes","1024"
"1","1600","150","15","100","100","315","315","white","no","xpyriment","legacy","legacy","0","uniform","1","1","m","0","0","0","0","0","58","NA","NA","58","58","0","58","58","58","58","0","11/29/15 15:26:34","Default description","no","mono","no","18","black","Ok","768","legacy","D:/Dropbox/Computational Modeling/Code/Week 4 - Experiment/subject-2203480.csv","xpyriment","Interactive Ising","3.0.4","0","m","NA","NA","m","377","NA","NA","377","legacy","experiment","2203480","even","legacy","155253","NA","NA","NA","NA","384406","NA","NA","382393","384010","3107","384406","380876","380857","384010","3107","CogMod 2015 Experiment","59","18632","59","yes","1024"
"1","800","-150","15","100","100","315","315","white","no","xpyriment","legacy","legacy","0","uniform","1","1","z","0","0","0","0","0","59","NA","NA","59","59","0","59","59","59","59","0","11/29/15 15:26:34","Default description","no","mono","no","18","black","Ok","768","legacy","D:/Dropbox/Computational Modeling/Code/Week 4 - Experiment/subject-2203480.csv","xpyriment","Interactive Ising","3.0.4","0","z","NA","NA","z","314","NA","NA","314","legacy","experiment","2203480","even","legacy","155253","NA","NA","NA","NA","387950","NA","NA","386799","387617","3107","387950","385281","385262","387617","3107","CogMod 2015 Experiment","60","18946","60","yes","1024"
"1","1200","-150","15","100","100","317","317","white","no","xpyriment","legacy","legacy","0","uniform","1","1","z","0","0","0","0","0","60","NA","NA","60","60","0","60","60","60","60","0","11/29/15 15:26:34","Default description","no","mono","no","18","black","Ok","768","legacy","D:/Dropbox/Computational Modeling/Code/Week 4 - Experiment/subject-2203480.csv","xpyriment","Interactive Ising","3.0.4","0","z","NA","NA","z","399","NA","NA","399","legacy","experiment","2203480","even","legacy","155253","NA","NA","NA","NA","391982","NA","NA","390347","391565","3107","391983","388830","388812","391565","3107","CogMod 2015 Experiment","61","19345","61","yes","1024"
"1","1200","-150","15","100","100","317","317","white","no","xpyriment","legacy","legacy","0","uniform","1","1","z","0","0","0","0","0","61","NA","NA","61","61","0","61","61","61","61","0","11/29/15 15:26:34","Default description","no","mono","no","18","black","Ok","768","legacy","D:/Dropbox/Computational Modeling/Code/Week 4 - Experiment/subject-2203480.csv","xpyriment","Interactive Ising","3.0.4","0","z","NA","NA","z","315","NA","NA","315","legacy","experiment","2203480","even","legacy","155253","NA","NA","NA","NA","395895","NA","NA","394342","395561","3107","395895","392824","392804","395561","3107","CogMod 2015 Experiment","62","19660","62","yes","1024"
"1","400","-150","15","100","100","317","317","white","no","xpyriment","legacy","legacy","0","uniform","1","1","z","0","0","0","0","0","62","NA","NA","62","62","0","62","62","62","62","0","11/29/15 15:26:34","Default description","no","mono","no","18","black","Ok","768","legacy","D:/Dropbox/Computational Modeling/Code/Week 4 - Experiment/subject-2203480.csv","xpyriment","Interactive Ising","3.0.4","0","z","NA","NA","z","348","NA","NA","348","legacy","experiment","2203480","even","legacy","155253","NA","NA","NA","NA","399095","NA","NA","398308","398727","3107","399095","396790","396771","398726","3107","CogMod 2015 Experiment","63","20008","63","yes","1024"
"1","1200","150","15","100","100","316","316","white","no","xpyriment","legacy","legacy","0","uniform","1","1","m","0","0","0","0","0","63","NA","NA","63","63","0","63","63","63","63","0","11/29/15 15:26:34","Default description","no","mono","no","18","black","Ok","768","legacy","D:/Dropbox/Computational Modeling/Code/Week 4 - Experiment/subject-2203480.csv","xpyriment","Interactive Ising","3.0.4","0","m","NA","NA","m","262","NA","NA","262","legacy","experiment","2203480","even","legacy","155253","NA","NA","NA","NA","402959","NA","NA","401459","402677","3107","402959","399940","399922","402677","3107","CogMod 2015 Experiment","64","20270","64","yes","1024"
"1","400","150","15","100","100","317","317","white","no","xpyriment","legacy","legacy","0","uniform","1","1","m","0","0","0","0","0","64","NA","NA","64","64","0","64","64","64","64","0","11/29/15 15:26:34","Default description","no","mono","no","18","black","Ok","768","legacy","D:/Dropbox/Computational Modeling/Code/Week 4 - Experiment/subject-2203480.csv","xpyriment","Interactive Ising","3.0.4","0","m","NA","NA","m","385","NA","NA","385","legacy","experiment","2203480","even","legacy","155253","NA","NA","NA","NA","406134","NA","NA","405313","405730","3107","406134","403793","403772","405730","3107","CogMod 2015 Experiment","65","20655","65","yes","1024"
"1","400","150","15","100","100","318","318","white","no","xpyriment","legacy","legacy","0","uniform","1","1","m","0","0","0","0","0","65","NA","NA","65","65","0","65","65","65","65","0","11/29/15 15:26:34","Default description","no","mono","no","18","black","Ok","768","legacy","D:/Dropbox/Computational Modeling/Code/Week 4 - Experiment/subject-2203480.csv","xpyriment","Interactive Ising","3.0.4","0","m","NA","NA","m","345","NA","NA","345","legacy","experiment","2203480","even","legacy","155253","NA","NA","NA","NA","409263","NA","NA","408480","408898","3107","409263","406962","406941","408898","3107","CogMod 2015 Experiment","66","21000","66","yes","1024"
"1","800","150","15","100","100","318","318","white","no","xpyriment","legacy","legacy","0","uniform","1","1","m","0","0","0","0","0","66","NA","NA","66","66","0","66","66","66","66","0","11/29/15 15:26:34","Default description","no","mono","no","18","black","Ok","768","legacy","D:/Dropbox/Computational Modeling/Code/Week 4 - Experiment/subject-2203480.csv","xpyriment","Interactive Ising","3.0.4","0","m","NA","NA","m","318","NA","NA","318","legacy","experiment","2203480","even","legacy","155253","NA","NA","NA","NA","412763","NA","NA","411602","412422","3107","412763","410083","410064","412421","3107","CogMod 2015 Experiment","67","21318","67","yes","1024"
"1","400","-150","15","100","100","317","317","white","no","xpyriment","legacy","legacy","0","uniform","1","1","z","0","0","0","0","0","67","NA","NA","67","67","0","67","67","67","67","0","11/29/15 15:26:34","Default description","no","mono","no","18","black","Ok","768","legacy","D:/Dropbox/Computational Modeling/Code/Week 4 - Experiment/subject-2203480.csv","xpyriment","Interactive Ising","3.0.4","0","z","NA","NA","z","295","NA","NA","295","legacy","experiment","2203480","even","legacy","155253","NA","NA","NA","NA","415895","NA","NA","415162","415580","3107","415896","413642","413621","415580","3107","CogMod 2015 Experiment","68","21613","68","yes","1024"
"1","400","150","15","100","100","317","317","white","no","xpyriment","legacy","legacy","0","uniform","1","1","m","0","0","0","0","0","68","NA","NA","68","68","0","68","68","68","68","0","11/29/15 15:26:34","Default description","no","mono","no","18","black","Ok","768","legacy","D:/Dropbox/Computational Modeling/Code/Week 4 - Experiment/subject-2203480.csv","xpyriment","Interactive Ising","3.0.4","0","m","NA","NA","m","317","NA","NA","317","legacy","experiment","2203480","even","legacy","155253","NA","NA","NA","NA","419055","NA","NA","418300","418718","3107","419055","416780","416761","418718","3107","CogMod 2015 Experiment","69","21930","69","yes","1024"
"1","1600","-150","15","100","100","317","317","white","no","xpyriment","legacy","legacy","0","uniform","1","1","z","0","0","0","0","0","69","NA","NA","69","69","0","69","69","69","69","0","11/29/15 15:26:34","Default description","no","mono","no","18","black","Ok","768","legacy","D:/Dropbox/Computational Modeling/Code/Week 4 - Experiment/subject-2203480.csv","xpyriment","Interactive Ising","3.0.4","0","z","NA","NA","z","304","NA","NA","304","legacy","experiment","2203480","even","legacy","155253","NA","NA","NA","NA","423414","NA","NA","421473","423091","3107","423415","419955","419926","423091","3107","CogMod 2015 Experiment","70","22234","70","yes","1024"
"1","800","150","15","100","100","318","318","white","no","xpyriment","legacy","legacy","0","uniform","1","1","m","0","0","0","0","0","70","NA","NA","70","70","0","70","70","70","70","0","11/29/15 15:26:34","Default description","no","mono","no","18","black","Ok","768","legacy","D:/Dropbox/Computational Modeling/Code/Week 4 - Experiment/subject-2203480.csv","xpyriment","Interactive Ising","3.0.4","0","m","NA","NA","m","364","NA","NA","364","legacy","experiment","2203480","even","legacy","155253","NA","NA","NA","NA","427033","NA","NA","425809","426639","3107","427033","424280","424252","426639","3107","CogMod 2015 Experiment","71","22598","71","yes","1024"
"1","400","150","15","100","100","317","317","white","no","xpyriment","legacy","legacy","0","uniform","1","1","m","0","0","0","0","0","71","NA","NA","71","71","0","71","71","71","71","0","11/29/15 15:26:34","Default description","no","mono","no","18","black","Ok","768","legacy","D:/Dropbox/Computational Modeling/Code/Week 4 - Experiment/subject-2203480.csv","xpyriment","Interactive Ising","3.0.4","0","m","NA","NA","m","280","NA","NA","280","legacy","experiment","2203480","even","legacy","155253","NA","NA","NA","NA","430182","NA","NA","429465","429883","3107","430183","427945","427916","429883","3107","CogMod 2015 Experiment","72","22878","72","yes","1024"
"1","800","150","15","100","100","317","317","white","no","xpyriment","legacy","legacy","0","uniform","1","1","m","0","0","0","0","0","72","NA","NA","72","72","0","72","72","72","72","0","11/29/15 15:26:34","Default description","no","mono","no","18","black","Ok","768","legacy","D:/Dropbox/Computational Modeling/Code/Week 4 - Experiment/subject-2203480.csv","xpyriment","Interactive Ising","3.0.4","0","m","NA","NA","m","301","NA","NA","301","legacy","experiment","2203480","even","legacy","155253","NA","NA","NA","NA","433737","NA","NA","432578","433406","3107","433737","431049","431030","433406","3107","CogMod 2015 Experiment","73","23179","73","yes","1024"
"1","800","-150","15","100","100","317","317","white","no","xpyriment","legacy","legacy","0","uniform","1","1","z","0","0","0","0","0","73","NA","NA","73","73","0","73","73","73","73","0","11/29/15 15:26:34","Default description","no","mono","no","18","black","Ok","768","legacy","D:/Dropbox/Computational Modeling/Code/Week 4 - Experiment/subject-2203480.csv","xpyriment","Interactive Ising","3.0.4","0","z","NA","NA","z","287","NA","NA","287","legacy","experiment","2203480","even","legacy","155253","NA","NA","NA","NA","437262","NA","NA","436136","436956","3107","437262","434616","434585","436956","3107","CogMod 2015 Experiment","74","23466","74","yes","1024"
"1","1200","150","15","100","100","316","316","white","no","xpyriment","legacy","legacy","0","uniform","1","1","m","0","0","0","0","0","74","NA","NA","74","74","0","74","74","74","74","0","11/29/15 15:26:34","Default description","no","mono","no","18","black","Ok","768","legacy","D:/Dropbox/Computational Modeling/Code/Week 4 - Experiment/subject-2203480.csv","xpyriment","Interactive Ising","3.0.4","0","m","NA","NA","m","307","NA","NA","307","legacy","experiment","2203480","even","legacy","155253","NA","NA","NA","NA","441263","NA","NA","439700","440928","3107","441263","438172","438139","440928","3107","CogMod 2015 Experiment","75","23773","75","yes","1024"
"1","400","-150","15","100","100","316","316","white","no","xpyriment","legacy","legacy","0","uniform","1","1","z","0","0","0","0","0","75","NA","NA","75","75","0","75","75","75","75","0","11/29/15 15:26:34","Default description","no","mono","no","18","black","Ok","768","legacy","D:/Dropbox/Computational Modeling/Code/Week 4 - Experiment/subject-2203480.csv","xpyriment","Interactive Ising","3.0.4","0","z","NA","NA","z","294","NA","NA","294","legacy","experiment","2203480","even","legacy","155253","NA","NA","NA","NA","444422","NA","NA","443683","444100","3107","444422","442167","442133","444100","3107","CogMod 2015 Experiment","76","24067","76","yes","1024"
"1","1200","-150","15","100","100","316","316","white","no","xpyriment","legacy","legacy","0","uniform","1","1","z","0","0","0","0","0","76","NA","NA","76","76","0","76","76","76","76","0","11/29/15 15:26:34","Default description","no","mono","no","18","black","Ok","768","legacy","D:/Dropbox/Computational Modeling/Code/Week 4 - Experiment/subject-2203480.csv","xpyriment","Interactive Ising","3.0.4","0","z","NA","NA","z","317","NA","NA","317","legacy","experiment","2203480","even","legacy","155253","NA","NA","NA","NA","448422","NA","NA","446850","448077","3107","448422","445324","445291","448077","3107","CogMod 2015 Experiment","77","24384","77","yes","1024"
"1","1200","150","15","100","100","316","316","white","no","xpyriment","legacy","legacy","0","uniform","1","1","m","0","0","0","0","0","77","NA","NA","77","77","0","77","77","77","77","0","11/29/15 15:26:34","Default description","no","mono","no","18","black","Ok","768","legacy","D:/Dropbox/Computational Modeling/Code/Week 4 - Experiment/subject-2203480.csv","xpyriment","Interactive Ising","3.0.4","0","m","NA","NA","m","336","NA","NA","336","legacy","experiment","2203480","even","legacy","155253","NA","NA","NA","NA","452503","NA","NA","450928","452146","3107","452503","449408","449377","452146","3107","CogMod 2015 Experiment","78","24720","78","yes","1024"
"1","400","-150","15","100","100","317","317","white","no","xpyriment","legacy","legacy","0","uniform","1","1","z","0","0","0","0","0","78","NA","NA","78","78","0","78","78","78","78","0","11/29/15 15:26:34","Default description","no","mono","no","18","black","Ok","768","legacy","D:/Dropbox/Computational Modeling/Code/Week 4 - Experiment/subject-2203480.csv","xpyriment","Interactive Ising","3.0.4","0","z","NA","NA","z","366","NA","NA","366","legacy","experiment","2203480","even","legacy","155253","NA","NA","NA","NA","455686","NA","NA","454884","455301","3107","455686","453365","453345","455301","3107","CogMod 2015 Experiment","79","25086","79","yes","1024"
"1","1600","-150","15","100","100","317","317","white","no","xpyriment","legacy","legacy","0","uniform","1","1","z","0","0","0","0","0","79","NA","NA","79","79","0","79","79","79","79","0","11/29/15 15:26:34","Default description","no","mono","no","18","black","Ok","768","legacy","D:/Dropbox/Computational Modeling/Code/Week 4 - Experiment/subject-2203480.csv","xpyriment","Interactive Ising","3.0.4","0","z","NA","NA","z","327","NA","NA","327","legacy","experiment","2203480","even","legacy","155253","NA","NA","NA","NA","460054","NA","NA","458089","459708","3107","460054","456570","456550","459707","3107","CogMod 2015 Experiment","80","25413","80","yes","1024"
"1","1600","150","15","100","100","317","317","white","no","xpyriment","legacy","legacy","0","uniform","1","1","m","0","0","0","0","0","80","NA","NA","80","80","0","80","80","80","80","0","11/29/15 15:26:34","Default description","no","mono","no","18","black","Ok","768","legacy","D:/Dropbox/Computational Modeling/Code/Week 4 - Experiment/subject-2203480.csv","xpyriment","Interactive Ising","3.0.4","0","m","NA","NA","m","310","NA","NA","310","legacy","experiment","2203480","even","legacy","155253","NA","NA","NA","NA","464382","NA","NA","462432","464053","3107","464382","460915","460895","464053","3107","CogMod 2015 Experiment","81","25723","81","yes","1024"
"1","1600","-150","15","100","100","317","317","white","no","xpyriment","legacy","legacy","0","uniform","1","1","z","0","0","0","0","0","81","NA","NA","81","81","0","81","81","81","81","0","11/29/15 15:26:34","Default description","no","mono","no","18","black","Ok","768","legacy","D:/Dropbox/Computational Modeling/Code/Week 4 - Experiment/subject-2203480.csv","xpyriment","Interactive Ising","3.0.4","0","z","NA","NA","z","306","NA","NA","306","legacy","experiment","2203480","even","legacy","155253","NA","NA","NA","NA","468671","NA","NA","466726","468344","3107","468671","465207","465187","468344","3107","CogMod 2015 Experiment","82","26029","82","yes","1024"
"1","400","-150","15","100","100","318","318","white","no","xpyriment","legacy","legacy","0","uniform","1","1","z","0","0","0","0","0","82","NA","NA","82","82","0","82","82","82","82","0","11/29/15 15:26:34","Default description","no","mono","no","18","black","Ok","768","legacy","D:/Dropbox/Computational Modeling/Code/Week 4 - Experiment/subject-2203480.csv","xpyriment","Interactive Ising","3.0.4","0","z","NA","NA","z","419","NA","NA","419","legacy","experiment","2203480","even","legacy","155253","NA","NA","NA","NA","471861","NA","NA","471004","471423","3107","471862","469485","469466","471423","3107","CogMod 2015 Experiment","83","26448","83","yes","1024"
"1","400","-150","15","100","100","318","318","white","no","xpyriment","legacy","legacy","0","uniform","1","1","z","0","0","0","0","0","83","NA","NA","83","83","0","83","83","83","83","0","11/29/15 15:26:34","Default description","no","mono","no","18","black","Ok","768","legacy","D:/Dropbox/Computational Modeling/Code/Week 4 - Experiment/subject-2203480.csv","xpyriment","Interactive Ising","3.0.4","0","z","NA","NA","z","300","NA","NA","300","legacy","experiment","2203480","even","legacy","155253","NA","NA","NA","NA","475005","NA","NA","474269","474686","3107","475005","472752","472733","474686","3107","CogMod 2015 Experiment","84","26748","84","yes","1024"
"1","400","-150","15","100","100","318","318","white","no","xpyriment","legacy","legacy","0","uniform","1","1","z","0","0","0","0","0","84","NA","NA","84","84","0","84","84","84","84","0","11/29/15 15:26:34","Default description","no","mono","no","18","black","Ok","768","legacy","D:/Dropbox/Computational Modeling/Code/Week 4 - Experiment/subject-2203480.csv","xpyriment","Interactive Ising","3.0.4","0","z","NA","NA","z","336","NA","NA","336","legacy","experiment","2203480","even","legacy","155253","NA","NA","NA","NA","478142","NA","NA","477368","477786","3107","478142","475849","475827","477786","3107","CogMod 2015 Experiment","85","27084","85","yes","1024"
"1","400","150","15","100","100","318","318","white","no","xpyriment","legacy","legacy","0","uniform","1","1","m","0","0","0","0","0","85","NA","NA","85","85","0","85","85","85","85","0","11/29/15 15:26:34","Default description","no","mono","no","18","black","Ok","768","legacy","D:/Dropbox/Computational Modeling/Code/Week 4 - Experiment/subject-2203480.csv","xpyriment","Interactive Ising","3.0.4","0","m","NA","NA","m","313","NA","NA","313","legacy","experiment","2203480","even","legacy","155253","NA","NA","NA","NA","481294","NA","NA","480543","480961","3107","481294","479024","479005","480961","3107","CogMod 2015 Experiment","86","27397","86","yes","1024"
"1","1200","150","15","100","100","318","318","white","no","xpyriment","legacy","legacy","0","uniform","1","1","m","0","0","0","0","0","86","NA","NA","86","86","0","86","86","86","86","0","11/29/15 15:26:34","Default description","no","mono","no","18","black","Ok","768","legacy","D:/Dropbox/Computational Modeling/Code/Week 4 - Experiment/subject-2203480.csv","xpyriment","Interactive Ising","3.0.4","0","m","NA","NA","m","329","NA","NA","329","legacy","experiment","2203480","even","legacy","155253","NA","NA","NA","NA","485245","NA","NA","483680","484897","3107","485246","482162","482144","484897","3107","CogMod 2015 Experiment","87","27726","87","yes","1024"
"1","400","150","15","100","100","318","318","white","no","xpyriment","legacy","legacy","0","uniform","1","1","m","0","0","0","0","0","87","NA","NA","87","87","0","87","87","87","87","0","11/29/15 15:26:34","Default description","no","mono","no","18","black","Ok","768","legacy","D:/Dropbox/Computational Modeling/Code/Week 4 - Experiment/subject-2203480.csv","xpyriment","Interactive Ising","3.0.4","0","m","NA","NA","m","320","NA","NA","320","legacy","experiment","2203480","even","legacy","155253","NA","NA","NA","NA","488406","NA","NA","487649","488066","3107","488406","486131","486111","488066","3107","CogMod 2015 Experiment","88","28046","88","yes","1024"
"1","800","-150","15","100","100","317","317","white","no","xpyriment","legacy","legacy","0","uniform","1","1","z","0","0","0","0","0","88","NA","NA","88","88","0","88","88","88","88","0","11/29/15 15:26:34","Default description","no","mono","no","18","black","Ok","768","legacy","D:/Dropbox/Computational Modeling/Code/Week 4 - Experiment/subject-2203480.csv","xpyriment","Interactive Ising","3.0.4","0","z","NA","NA","z","220","NA","NA","220","legacy","experiment","2203480","even","legacy","155253","NA","NA","NA","NA","491869","NA","NA","490811","491630","3107","491869","489292","489271","491630","3107","CogMod 2015 Experiment","89","28266","89","yes","1024"
"1","1200","-150","15","100","100","317","317","white","no","xpyriment","legacy","legacy","0","uniform","1","1","z","0","0","0","0","0","89","NA","NA","89","89","0","89","89","89","89","0","11/29/15 15:26:34","Default description","no","mono","no","18","black","Ok","768","legacy","D:/Dropbox/Computational Modeling/Code/Week 4 - Experiment/subject-2203480.csv","xpyriment","Interactive Ising","3.0.4","0","z","NA","NA","z","304","NA","NA","304","legacy","experiment","2203480","even","legacy","155253","NA","NA","NA","NA","495805","NA","NA","494264","495482","3107","495806","492746","492727","495482","3107","CogMod 2015 Experiment","90","28570","90","yes","1024"
"1","1600","150","15","100","100","317","317","white","no","xpyriment","legacy","legacy","0","uniform","1","1","m","0","0","0","0","0","90","NA","NA","90","90","0","90","90","90","90","0","11/29/15 15:26:34","Default description","no","mono","no","18","black","Ok","768","legacy","D:/Dropbox/Computational Modeling/Code/Week 4 - Experiment/subject-2203480.csv","xpyriment","Interactive Ising","3.0.4","0","m","NA","NA","m","344","NA","NA","344","legacy","experiment","2203480","even","legacy","155253","NA","NA","NA","NA","500181","NA","NA","498197","499818","3107","500181","496678","496660","499818","3107","CogMod 2015 Experiment","91","28914","91","yes","1024"
"1","800","-150","15","100","100","317","317","white","no","xpyriment","legacy","legacy","0","uniform","1","1","z","0","0","0","0","0","91","NA","NA","91","91","0","91","91","91","91","0","11/29/15 15:26:34","Default description","no","mono","no","18","black","Ok","768","legacy","D:/Dropbox/Computational Modeling/Code/Week 4 - Experiment/subject-2203480.csv","xpyriment","Interactive Ising","3.0.4","0","z","NA","NA","z","320","NA","NA","320","legacy","experiment","2203480","even","legacy","155253","NA","NA","NA","NA","503725","NA","NA","502568","503386","3107","503725","501049","501030","503386","3107","CogMod 2015 Experiment","92","29234","92","yes","1024"
"1","1600","150","15","100","100","317","317","white","no","xpyriment","legacy","legacy","0","uniform","1","1","m","0","0","0","0","0","92","NA","NA","92","92","0","92","92","92","92","0","11/29/15 15:26:34","Default description","no","mono","no","18","black","Ok","768","legacy","D:/Dropbox/Computational Modeling/Code/Week 4 - Experiment/subject-2203480.csv","xpyriment","Interactive Ising","3.0.4","0","m","NA","NA","m","292","NA","NA","292","legacy","experiment","2203480","even","legacy","155253","NA","NA","NA","NA","508069","NA","NA","506140","507758","3107","508069","504620","504589","507758","3107","CogMod 2015 Experiment","93","29526","93","yes","1024"
"1","1600","-150","15","100","100","317","317","white","no","xpyriment","legacy","legacy","0","uniform","1","1","z","0","0","0","0","0","93","NA","NA","93","93","0","93","93","93","93","0","11/29/15 15:26:34","Default description","no","mono","no","18","black","Ok","768","legacy","D:/Dropbox/Computational Modeling/Code/Week 4 - Experiment/subject-2203480.csv","xpyriment","Interactive Ising","3.0.4","0","z","NA","NA","z","310","NA","NA","310","legacy","experiment","2203480","even","legacy","155253","NA","NA","NA","NA","512448","NA","NA","510479","512108","3107","512448","508951","508923","512108","3107","CogMod 2015 Experiment","94","29836","94","yes","1024"
"1","400","150","15","100","100","317","317","white","no","xpyriment","legacy","legacy","0","uniform","1","1","m","0","0","0","0","0","94","NA","NA","94","94","0","94","94","94","94","0","11/29/15 15:26:34","Default description","no","mono","no","18","black","Ok","768","legacy","D:/Dropbox/Computational Modeling/Code/Week 4 - Experiment/subject-2203480.csv","xpyriment","Interactive Ising","3.0.4","0","m","NA","NA","m","306","NA","NA","306","legacy","experiment","2203480","even","legacy","155253","NA","NA","NA","NA","515597","NA","NA","514853","515272","3107","515597","513329","513297","515272","3107","CogMod 2015 Experiment","95","30142","95","yes","1024"
"1","1200","150","15","100","100","317","317","white","no","xpyriment","legacy","legacy","0","uniform","1","1","m","0","0","0","0","0","95","NA","NA","95","95","0","95","95","95","95","0","11/29/15 15:26:34","Default description","no","mono","no","18","black","Ok","768","legacy","D:/Dropbox/Computational Modeling/Code/Week 4 - Experiment/subject-2203480.csv","xpyriment","Interactive Ising","3.0.4","0","m","NA","NA","m","385","NA","NA","385","legacy","experiment","2203480","even","legacy","155253","NA","NA","NA","NA","519616","NA","NA","517973","519201","3107","519616","516445","516425","519201","3107","CogMod 2015 Experiment","96","30527","96","yes","1024"
"1","1600","150","15","100","100","320","320","white","no","xpyriment","legacy","legacy","0","uniform","1","1","m","0","0","0","0","0","96","NA","NA","96","96","0","96","96","96","96","0","11/29/15 15:26:34","Default description","no","mono","no","18","black","Ok","768","legacy","D:/Dropbox/Computational Modeling/Code/Week 4 - Experiment/subject-2203480.csv","xpyriment","Interactive Ising","3.0.4","0","m","NA","NA","m","520","NA","NA","520","legacy","experiment","2203480","even","legacy","155253","NA","NA","NA","NA","524174","NA","NA","522015","523634","3107","524174","520497","520466","523634","3107","CogMod 2015 Experiment","97","31047","97","yes","1024"
"1","400","-150","15","100","100","320","320","white","no","xpyriment","legacy","legacy","0","uniform","1","1","z","0","0","0","0","0","97","NA","NA","97","97","0","97","97","97","97","0","11/29/15 15:26:34","Default description","no","mono","no","18","black","Ok","768","legacy","D:/Dropbox/Computational Modeling/Code/Week 4 - Experiment/subject-2203480.csv","xpyriment","Interactive Ising","3.0.4","0","z","NA","NA","z","347","NA","NA","347","legacy","experiment","2203480","even","legacy","155253","NA","NA","NA","NA","527365","NA","NA","526564","526991","3107","527366","525035","525003","526991","3107","CogMod 2015 Experiment","98","31394","98","yes","1024"
"1","1600","150","15","100","100","320","320","white","no","xpyriment","legacy","legacy","0","uniform","1","1","m","0","0","0","0","0","98","NA","NA","98","98","0","98","98","98","98","0","11/29/15 15:26:34","Default description","no","mono","no","18","black","Ok","768","legacy","D:/Dropbox/Computational Modeling/Code/Week 4 - Experiment/subject-2203480.csv","xpyriment","Interactive Ising","3.0.4","0","m","NA","NA","m","305","NA","NA","305","legacy","experiment","2203480","even","legacy","155253","NA","NA","NA","NA","531712","NA","NA","529759","531376","3107","531712","528243","528209","531376","3107","CogMod 2015 Experiment","99","31699","99","yes","1024"
"1","400","150","15","99","99","321","321","white","no","xpyriment","legacy","legacy","0","uniform","0","0","m","0","0","0","0","0","99","NA","NA","99","99","0","99","99","99","99","0","11/29/15 15:26:34","Default description","no","mono","no","18","black","Ok","768","legacy","D:/Dropbox/Computational Modeling/Code/Week 4 - Experiment/subject-2203480.csv","xpyriment","Interactive Ising","3.0.4","0","z","NA","NA","z","401","NA","NA","401","legacy","experiment","2203480","even","legacy","155253","NA","NA","NA","NA","534943","NA","NA","534086","534513","3107","534943","532559","532527","534513","3107","CogMod 2015 Experiment","99","32100","100","yes","1024"
"1","400","-150","15","99.0099009901","99.0099009901","320","320","white","no","xpyriment","legacy","legacy","0","uniform","1","1","z","0","0","0","0","0","100","NA","NA","100","100","0","100","100","100","100","0","11/29/15 15:26:34","Default description","no","mono","no","18","black","Ok","768","legacy","D:/Dropbox/Computational Modeling/Code/Week 4 - Experiment/subject-2203480.csv","xpyriment","Interactive Ising","3.0.4","0","z","NA","NA","z","319","NA","NA","319","legacy","experiment","2203480","even","legacy","155253","NA","NA","NA","NA","538179","NA","NA","537424","537843","3107","538179","535905","535872","537842","3107","CogMod 2015 Experiment","100","32419","101","yes","1024"
"1","800","150","15","99.0196078431","99.0196078431","320","320","white","no","xpyriment","legacy","legacy","0","uniform","1","1","m","0","0","0","0","0","101","NA","NA","101","101","0","101","101","101","101","0","11/29/15 15:26:34","Default description","no","mono","no","18","black","Ok","768","legacy","D:/Dropbox/Computational Modeling/Code/Week 4 - Experiment/subject-2203480.csv","xpyriment","Interactive Ising","3.0.4","0","m","NA","NA","m","300","NA","NA","300","legacy","experiment","2203480","even","legacy","155253","NA","NA","NA","NA","541685","NA","NA","540548","541366","3107","541685","539029","539009","541366","3107","CogMod 2015 Experiment","101","32719","102","yes","1024"
"1","1200","150","15","99.0291262136","99.0291262136","321","321","white","no","xpyriment","legacy","legacy","0","uniform","1","1","m","0","0","0","0","0","102","NA","NA","102","102","0","102","102","102","102","0","11/29/15 15:26:34","Default description","no","mono","no","18","black","Ok","768","legacy","D:/Dropbox/Computational Modeling/Code/Week 4 - Experiment/subject-2203480.csv","xpyriment","Interactive Ising","3.0.4","0","m","NA","NA","m","344","NA","NA","344","legacy","experiment","2203480","even","legacy","155253","NA","NA","NA","NA","545653","NA","NA","544069","545289","3107","545653","542550","542531","545289","3107","CogMod 2015 Experiment","102","33063","103","yes","1024"
"1","400","150","15","99.0384615385","99.0384615385","321","321","white","no","xpyriment","legacy","legacy","0","uniform","1","1","m","0","0","0","0","0","103","NA","NA","103","103","0","103","103","103","103","0","11/29/15 15:26:34","Default description","no","mono","no","18","black","Ok","768","legacy","D:/Dropbox/Computational Modeling/Code/Week 4 - Experiment/subject-2203480.csv","xpyriment","Interactive Ising","3.0.4","0","m","NA","NA","m","349","NA","NA","349","legacy","experiment","2203480","even","legacy","155253","NA","NA","NA","NA","548837","NA","NA","548050","548468","3107","548837","546531","546512","548468","3107","CogMod 2015 Experiment","103","33412","104","yes","1024"
"1","400","150","15","99.0476190476","99.0476190476","321","321","white","no","xpyriment","legacy","legacy","0","uniform","1","1","m","0","0","0","0","0","104","NA","NA","104","104","0","104","104","104","104","0","11/29/15 15:26:34","Default description","no","mono","no","18","black","Ok","768","legacy","D:/Dropbox/Computational Modeling/Code/Week 4 - Experiment/subject-2203480.csv","xpyriment","Interactive Ising","3.0.4","0","m","NA","NA","m","323","NA","NA","323","legacy","experiment","2203480","even","legacy","155253","NA","NA","NA","NA","551997","NA","NA","551235","551654","3107","551997","549716","549697","551654","3107","CogMod 2015 Experiment","104","33735","105","yes","1024"
"1","1600","150","15","99.0566037736","99.0566037736","321","321","white","no","xpyriment","legacy","legacy","0","uniform","1","1","m","0","0","0","0","0","105","NA","NA","105","105","0","105","105","105","105","0","11/29/15 15:26:34","Default description","no","mono","no","18","black","Ok","768","legacy","D:/Dropbox/Computational Modeling/Code/Week 4 - Experiment/subject-2203480.csv","xpyriment","Interactive Ising","3.0.4","0","m","NA","NA","m","343","NA","NA","343","legacy","experiment","2203480","even","legacy","155253","NA","NA","NA","NA","556373","NA","NA","554392","556010","3107","556373","552873","552853","556010","3107","CogMod 2015 Experiment","105","34078","106","yes","1024"
"1","400","-150","15","99.0654205607","99.0654205607","322","322","white","no","xpyriment","legacy","legacy","0","uniform","1","1","z","0","0","0","0","0","106","NA","NA","106","106","0","106","106","106","106","0","11/29/15 15:26:34","Default description","no","mono","no","18","black","Ok","768","legacy","D:/Dropbox/Computational Modeling/Code/Week 4 - Experiment/subject-2203480.csv","xpyriment","Interactive Ising","3.0.4","0","z","NA","NA","z","378","NA","NA","378","legacy","experiment","2203480","even","legacy","155253","NA","NA","NA","NA","559597","NA","NA","558781","559199","3107","559597","557262","557244","559199","3107","CogMod 2015 Experiment","106","34456","107","yes","1024"
"1","1200","150","15","99.0740740741","99.0740740741","322","322","white","no","xpyriment","legacy","legacy","0","uniform","1","1","m","0","0","0","0","0","107","NA","NA","107","107","0","107","107","107","107","0","11/29/15 15:26:34","Default description","no","mono","no","18","black","Ok","768","legacy","D:/Dropbox/Computational Modeling/Code/Week 4 - Experiment/subject-2203480.csv","xpyriment","Interactive Ising","3.0.4","0","m","NA","NA","m","351","NA","NA","351","legacy","experiment","2203480","even","legacy","155253","NA","NA","NA","NA","563555","NA","NA","561969","563186","3107","563555","560453","560435","563186","3107","CogMod 2015 Experiment","107","34807","108","yes","1024"
"1","1600","150","15","99.0825688073","99.0825688073","322","322","white","no","xpyriment","legacy","legacy","0","uniform","1","1","m","0","0","0","0","0","108","NA","NA","108","108","0","108","108","108","108","0","11/29/15 15:26:34","Default description","no","mono","no","18","black","Ok","768","legacy","D:/Dropbox/Computational Modeling/Code/Week 4 - Experiment/subject-2203480.csv","xpyriment","Interactive Ising","3.0.4","0","m","NA","NA","m","321","NA","NA","321","legacy","experiment","2203480","even","legacy","155253","NA","NA","NA","NA","567884","NA","NA","565925","567544","3107","567884","564404","564386","567544","3107","CogMod 2015 Experiment","108","35128","109","yes","1024"
"1","1600","150","15","99.0909090909","99.0909090909","322","322","white","no","xpyriment","legacy","legacy","0","uniform","1","1","m","0","0","0","0","0","109","NA","NA","109","109","0","109","109","109","109","0","11/29/15 15:26:34","Default description","no","mono","no","18","black","Ok","768","legacy","D:/Dropbox/Computational Modeling/Code/Week 4 - Experiment/subject-2203480.csv","xpyriment","Interactive Ising","3.0.4","0","m","NA","NA","m","350","NA","NA","350","legacy","experiment","2203480","even","legacy","155253","NA","NA","NA","NA","572260","NA","NA","570271","571891","3107","572260","568754","568734","571891","3107","CogMod 2015 Experiment","109","35478","110","yes","1024"
"1","1200","-150","15","99.0990990991","99.0990990991","322","322","white","no","xpyriment","legacy","legacy","0","uniform","1","1","z","0","0","0","0","0","110","NA","NA","110","110","0","110","110","110","110","0","11/29/15 15:26:34","Default description","no","mono","no","18","black","Ok","768","legacy","D:/Dropbox/Computational Modeling/Code/Week 4 - Experiment/subject-2203480.csv","xpyriment","Interactive Ising","3.0.4","0","z","NA","NA","z","333","NA","NA","333","legacy","experiment","2203480","even","legacy","155253","NA","NA","NA","NA","576213","NA","NA","574641","575860","3107","576213","573119","573100","575860","3107","CogMod 2015 Experiment","110","35811","111","yes","1024"
"1","1600","-150","15","99.1071428571","99.1071428571","322","322","white","no","xpyriment","legacy","legacy","0","uniform","1","1","z","0","0","0","0","0","111","NA","NA","111","111","0","111","111","111","111","0","11/29/15 15:26:34","Default description","no","mono","no","18","black","Ok","768","legacy","D:/Dropbox/Computational Modeling/Code/Week 4 - Experiment/subject-2203480.csv","xpyriment","Interactive Ising","3.0.4","0","z","NA","NA","z","357","NA","NA","357","legacy","experiment","2203480","even","legacy","155253","NA","NA","NA","NA","580595","NA","NA","578602","580220","3107","580596","577083","577060","580220","3107","CogMod 2015 Experiment","111","36168","112","yes","1024"
"1","1600","-150","15","99.1150442478","99.1150442478","322","322","white","no","xpyriment","legacy","legacy","0","uniform","1","1","z","0","0","0","0","0","112","NA","NA","112","112","0","112","112","112","112","0","11/29/15 15:26:34","Default description","no","mono","no","18","black","Ok","768","legacy","D:/Dropbox/Computational Modeling/Code/Week 4 - Experiment/subject-2203480.csv","xpyriment","Interactive Ising","3.0.4","0","z","NA","NA","z","290","NA","NA","290","legacy","experiment","2203480","even","legacy","155253","NA","NA","NA","NA","584900","NA","NA","582972","584591","3107","584901","581451","581431","584591","3107","CogMod 2015 Experiment","112","36458","113","yes","1024"
"1","1200","-150","15","99.1228070175","99.1228070175","322","322","white","no","xpyriment","legacy","legacy","0","uniform","1","1","z","0","0","0","0","0","113","NA","NA","113","113","0","113","113","113","113","0","11/29/15 15:26:34","Default description","no","mono","no","18","black","Ok","768","legacy","D:/Dropbox/Computational Modeling/Code/Week 4 - Experiment/subject-2203480.csv","xpyriment","Interactive Ising","3.0.4","0","z","NA","NA","z","331","NA","NA","331","legacy","experiment","2203480","even","legacy","155253","NA","NA","NA","NA","588860","NA","NA","587292","588510","3107","588861","585772","585752","588510","3107","CogMod 2015 Experiment","113","36789","114","yes","1024"
"1","800","150","15","99.1304347826","99.1304347826","323","323","white","no","xpyriment","legacy","legacy","0","uniform","1","1","m","0","0","0","0","0","114","NA","NA","114","114","0","114","114","114","114","0","11/29/15 15:26:34","Default description","no","mono","no","18","black","Ok","768","legacy","D:/Dropbox/Computational Modeling/Code/Week 4 - Experiment/subject-2203480.csv","xpyriment","Interactive Ising","3.0.4","0","m","NA","NA","m","392","NA","NA","392","legacy","experiment","2203480","even","legacy","155253","NA","NA","NA","NA","592452","NA","NA","591220","592040","3107","592452","589702","589682","592040","3107","CogMod 2015 Experiment","114","37181","115","yes","1024"
"1","400","-150","15","99.1379310345","99.1379310345","322","322","white","no","xpyriment","legacy","legacy","0","uniform","1","1","z","0","0","0","0","0","115","NA","NA","115","115","0","115","115","115","115","0","11/29/15 15:26:34","Default description","no","mono","no","18","black","Ok","768","legacy","D:/Dropbox/Computational Modeling/Code/Week 4 - Experiment/subject-2203480.csv","xpyriment","Interactive Ising","3.0.4","0","z","NA","NA","z","279","NA","NA","279","legacy","experiment","2203480","even","legacy","155253","NA","NA","NA","NA","595524","NA","NA","594808","595226","3107","595524","593289","593258","595225","3107","CogMod 2015 Experiment","115","37460","116","yes","1024"
"1","400","150","15","99.1452991453","99.1452991453","322","322","white","no","xpyriment","legacy","legacy","0","uniform","1","1","m","0","0","0","0","0","116","NA","NA","116","116","0","116","116","116","116","0","11/29/15 15:26:34","Default description","no","mono","no","18","black","Ok","768","legacy","D:/Dropbox/Computational Modeling/Code/Week 4 - Experiment/subject-2203480.csv","xpyriment","Interactive Ising","3.0.4","0","m","NA","NA","m","318","NA","NA","318","legacy","experiment","2203480","even","legacy","155253","NA","NA","NA","NA","598686","NA","NA","597909","598339","3107","598686","596380","596351","598339","3107","CogMod 2015 Experiment","116","37778","117","yes","1024"
"1","800","-150","15","99.1525423729","99.1525423729","322","322","white","no","xpyriment","legacy","legacy","0","uniform","1","1","z","0","0","0","0","0","117","NA","NA","117","117","0","117","117","117","117","0","11/29/15 15:26:34","Default description","no","mono","no","18","black","Ok","768","legacy","D:/Dropbox/Computational Modeling/Code/Week 4 - Experiment/subject-2203480.csv","xpyriment","Interactive Ising","3.0.4","0","z","NA","NA","z","297","NA","NA","297","legacy","experiment","2203480","even","legacy","155253","NA","NA","NA","NA","602276","NA","NA","601140","601960","3107","602277","599621","599591","601959","3107","CogMod 2015 Experiment","117","38075","118","yes","1024"
"1","1600","150","15","99.1596638655","99.1596638655","323","323","white","no","xpyriment","legacy","legacy","0","uniform","1","1","m","0","0","0","0","0","118","NA","NA","118","118","0","118","118","118","118","0","11/29/15 15:26:34","Default description","no","mono","no","18","black","Ok","768","legacy","D:/Dropbox/Computational Modeling/Code/Week 4 - Experiment/subject-2203480.csv","xpyriment","Interactive Ising","3.0.4","0","m","NA","NA","m","367","NA","NA","367","legacy","experiment","2203480","even","legacy","155253","NA","NA","NA","NA","606694","NA","NA","604667","606298","3107","606694","603138","603119","606298","3107","CogMod 2015 Experiment","118","38442","119","yes","1024"
"1","800","150","15","99.1666666667","99.1666666667","323","323","white","no","xpyriment","legacy","legacy","0","uniform","1","1","m","0","0","0","0","0","119","NA","NA","119","119","0","119","119","119","119","0","11/29/15 15:26:34","Default description","no","mono","no","18","black","Ok","768","legacy","D:/Dropbox/Computational Modeling/Code/Week 4 - Experiment/subject-2203480.csv","xpyriment","Interactive Ising","3.0.4","0","m","NA","NA","m","377","NA","NA","377","legacy","experiment","2203480","even","legacy","155253","NA","NA","NA","NA","610310","NA","NA","609093","609912","3107","610310","607572","607544","609911","3107","CogMod 2015 Experiment","119","38819","120","yes","1024"
"2","1200","-150","16","0","0","2000","2000","white","no","xpyriment","legacy","legacy","0","uniform","0","0","z","0","0","0","0","0","120","0","NA","120","120","0","120","120","120","120","0","11/29/15 15:26:34","Default description","no","mono","no","18","black","Ok","768","legacy","D:/Dropbox/Computational Modeling/Code/Week 4 - Experiment/subject-2203480.csv","xpyriment","Interactive Ising","3.0.4","0","None","unknown key","NA","None","2000","21582","NA","2000","legacy","experiment","2203480","even","legacy","155253","632976","NA","NA","NA","638626","611390","NA","635369","636597","3107","638627","633841","633804","636597","3107","CogMod 2015 Experiment","0","2000","1","yes","1024"
"2","1600","150","32","50","50","1189","1189","white","no","xpyriment","legacy","legacy","0","uniform","1","1","m","0","0","0","0","0","121","0","NA","121","121","0","121","121","121","121","0","11/29/15 15:26:34","Default description","no","mono","no","18","black","Ok","768","legacy","D:/Dropbox/Computational Modeling/Code/Week 4 - Experiment/subject-2203480.csv","xpyriment","Interactive Ising","3.0.4","0","m","unknown key","NA","m","378","21582","NA","378","legacy","experiment","2203480","even","legacy","155253","632976","NA","NA","NA","643215","611390","NA","641197","642814","3107","643215","639677","639641","642814","3107","CogMod 2015 Experiment","1","2378","2","yes","1024"
"2","1200","150","16","66.6666666667","66.6666666667","924","924","white","no","xpyriment","legacy","legacy","0","uniform","1","1","m","0","0","0","0","0","122","0","NA","122","122","0","122","122","122","122","0","11/29/15 15:26:34","Default description","no","mono","no","18","black","Ok","768","legacy","D:/Dropbox/Computational Modeling/Code/Week 4 - Experiment/subject-2203480.csv","xpyriment","Interactive Ising","3.0.4","0","m","unknown key","NA","m","396","21582","NA","396","legacy","experiment","2203480","even","legacy","155253","632976","NA","NA","NA","647244","611390","NA","645608","646828","3107","647244","644090","644071","646828","3107","CogMod 2015 Experiment","2","2774","3","yes","1024"
"2","1600","-150","32","75","75","761","761","white","no","xpyriment","legacy","legacy","0","uniform","1","1","z","0","0","0","0","0","123","0","NA","123","123","0","123","123","123","123","0","11/29/15 15:26:34","Default description","no","mono","no","18","black","Ok","768","legacy","D:/Dropbox/Computational Modeling/Code/Week 4 - Experiment/subject-2203480.csv","xpyriment","Interactive Ising","3.0.4","0","z","unknown key","NA","z","273","21582","NA","273","legacy","experiment","2203480","even","legacy","155253","632976","NA","NA","NA","651620","611390","NA","649708","651327","3107","651620","648188","648166","651327","3107","CogMod 2015 Experiment","3","3047","4","yes","1024"
"2","400","150","4","80","80","678","678","white","no","xpyriment","legacy","legacy","0","uniform","1","1","m","0","0","0","0","0","124","0","NA","124","124","0","124","124","124","124","0","11/29/15 15:26:34","Default description","no","mono","no","18","black","Ok","768","legacy","D:/Dropbox/Computational Modeling/Code/Week 4 - Experiment/subject-2203480.csv","xpyriment","Interactive Ising","3.0.4","0","m","unknown key","NA","m","343","21582","NA","343","legacy","experiment","2203480","even","legacy","155253","632976","NA","NA","NA","654796","611390","NA","654015","654433","3107","654796","652498","652479","654433","3107","CogMod 2015 Experiment","4","3390","5","yes","1024"
"2","400","-150","4","83.3333333333","83.3333333333","620","620","white","no","xpyriment","legacy","legacy","0","uniform","1","1","z","0","0","0","0","0","125","0","NA","125","125","0","125","125","125","125","0","11/29/15 15:26:34","Default description","no","mono","no","18","black","Ok","768","legacy","D:/Dropbox/Computational Modeling/Code/Week 4 - Experiment/subject-2203480.csv","xpyriment","Interactive Ising","3.0.4","0","z","unknown key","NA","z","332","21582","NA","332","legacy","experiment","2203480","even","legacy","155253","632976","NA","NA","NA","657987","611390","NA","657217","657635","3107","657988","655699","655680","657635","3107","CogMod 2015 Experiment","5","3722","6","yes","1024"
"2","1600","150","32","85.7142857143","85.7142857143","578","578","white","no","xpyriment","legacy","legacy","0","uniform","1","1","m","0","0","0","0","0","126","0","NA","126","126","0","126","126","126","126","0","11/29/15 15:26:34","Default description","no","mono","no","18","black","Ok","768","legacy","D:/Dropbox/Computational Modeling/Code/Week 4 - Experiment/subject-2203480.csv","xpyriment","Interactive Ising","3.0.4","0","m","unknown key","NA","m","330","21582","NA","330","legacy","experiment","2203480","even","legacy","155253","632976","NA","NA","NA","662355","611390","NA","660387","662006","3107","662355","658869","658848","662006","3107","CogMod 2015 Experiment","6","4052","7","yes","1024"
"2","1600","-150","32","87.5","87.5","542","542","white","no","xpyriment","legacy","legacy","0","uniform","1","1","z","0","0","0","0","0","127","0","NA","127","127","0","127","127","127","127","0","11/29/15 15:26:34","Default description","no","mono","no","18","black","Ok","768","legacy","D:/Dropbox/Computational Modeling/Code/Week 4 - Experiment/subject-2203480.csv","xpyriment","Interactive Ising","3.0.4","0","z","unknown key","NA","z","284","21582","NA","284","legacy","experiment","2203480","even","legacy","155253","632976","NA","NA","NA","666698","611390","NA","664778","666395","3107","666698","663261","663242","666395","3107","CogMod 2015 Experiment","7","4336","8","yes","1024"
"2","1600","150","32","88.8888888889","88.8888888889","530","530","white","no","xpyriment","legacy","legacy","0","uniform","1","1","m","0","0","0","0","0","128","0","NA","128","128","0","128","128","128","128","0","11/29/15 15:26:34","Default description","no","mono","no","18","black","Ok","768","legacy","D:/Dropbox/Computational Modeling/Code/Week 4 - Experiment/subject-2203480.csv","xpyriment","Interactive Ising","3.0.4","0","m","unknown key","NA","m","440","21582","NA","440","legacy","experiment","2203480","even","legacy","155253","632976","NA","NA","NA","671178","611390","NA","669101","670720","3107","671179","667583","667563","670720","3107","CogMod 2015 Experiment","8","4776","9","yes","1024"
"2","1600","-150","32","90","90","506","506","white","no","xpyriment","legacy","legacy","0","uniform","1","1","z","0","0","0","0","0","129","0","NA","129","129","0","129","129","129","129","0","11/29/15 15:26:34","Default description","no","mono","no","18","black","Ok","768","legacy","D:/Dropbox/Computational Modeling/Code/Week 4 - Experiment/subject-2203480.csv","xpyriment","Interactive Ising","3.0.4","0","z","unknown key","NA","z","287","21582","NA","287","legacy","experiment","2203480","even","legacy","155253","632976","NA","NA","NA","675515","611390","NA","673590","675209","3107","675515","672070","672051","675209","3107","CogMod 2015 Experiment","9","5063","10","yes","1024"
"2","1600","-150","32","90.9090909091","90.9090909091","490","490","white","no","xpyriment","legacy","legacy","0","uniform","1","1","z","0","0","0","0","0","130","0","NA","130","130","0","130","130","130","130","0","11/29/15 15:26:34","Default description","no","mono","no","18","black","Ok","768","legacy","D:/Dropbox/Computational Modeling/Code/Week 4 - Experiment/subject-2203480.csv","xpyriment","Interactive Ising","3.0.4","0","z","unknown key","NA","z","330","21582","NA","330","legacy","experiment","2203480","even","legacy","155253","632976","NA","NA","NA","679869","611390","NA","677899","679517","3107","679869","676380","676360","679517","3107","CogMod 2015 Experiment","10","5393","11","yes","1024"
"2","1600","150","32","91.6666666667","91.6666666667","478","478","white","no","xpyriment","legacy","legacy","0","uniform","1","1","m","0","0","0","0","0","131","0","NA","131","131","0","131","131","131","131","0","11/29/15 15:26:34","Default description","no","mono","no","18","black","Ok","768","legacy","D:/Dropbox/Computational Modeling/Code/Week 4 - Experiment/subject-2203480.csv","xpyriment","Interactive Ising","3.0.4","0","m","unknown key","NA","m","343","21582","NA","343","legacy","experiment","2203480","even","legacy","155253","632976","NA","NA","NA","684267","611390","NA","682285","683905","3107","684267","680765","680747","683905","3107","CogMod 2015 Experiment","11","5736","12","yes","1024"
"2","1200","150","16","92.3076923077","92.3076923077","467","467","white","no","xpyriment","legacy","legacy","0","uniform","1","1","m","0","0","0","0","0","132","0","NA","132","132","0","132","132","132","132","0","11/29/15 15:26:34","Default description","no","mono","no","18","black","Ok","768","legacy","D:/Dropbox/Computational Modeling/Code/Week 4 - Experiment/subject-2203480.csv","xpyriment","Interactive Ising","3.0.4","0","m","unknown key","NA","m","339","21582","NA","339","legacy","experiment","2203480","even","legacy","155253","632976","NA","NA","NA","688228","611390","NA","686650","687869","3107","688228","685132","685114","687869","3107","CogMod 2015 Experiment","12","6075","13","yes","1024"
"2","1200","150","16","92.8571428571","92.8571428571","465","465","white","no","xpyriment","legacy","legacy","0","uniform","1","1","m","0","0","0","0","0","133","0","NA","133","133","0","133","133","133","133","0","11/29/15 15:26:34","Default description","no","mono","no","18","black","Ok","768","legacy","D:/Dropbox/Computational Modeling/Code/Week 4 - Experiment/subject-2203480.csv","xpyriment","Interactive Ising","3.0.4","0","m","unknown key","NA","m","448","21582","NA","448","legacy","experiment","2203480","even","legacy","155253","632976","NA","NA","NA","692307","611390","NA","690621","691840","3107","692308","689100","689081","691840","3107","CogMod 2015 Experiment","13","6523","14","yes","1024"
"2","1600","-150","32","93.3333333333","93.3333333333","472","472","white","no","xpyriment","legacy","legacy","0","uniform","1","1","z","0","0","0","0","0","134","0","NA","134","134","0","134","134","134","134","0","11/29/15 15:26:34","Default description","no","mono","no","18","black","Ok","768","legacy","D:/Dropbox/Computational Modeling/Code/Week 4 - Experiment/subject-2203480.csv","xpyriment","Interactive Ising","3.0.4","0","z","unknown key","NA","z","558","21582","NA","558","legacy","experiment","2203480","even","legacy","155253","632976","NA","NA","NA","696932","611390","NA","694725","696345","3107","696932","693207","693187","696345","3107","CogMod 2015 Experiment","14","7081","15","yes","1024"
"2","1600","150","32","93.75","93.75","470","470","white","no","xpyriment","legacy","legacy","0","uniform","1","1","m","0","0","0","0","0","135","0","NA","135","135","0","135","135","135","135","0","11/29/15 15:26:34","Default description","no","mono","no","18","black","Ok","768","legacy","D:/Dropbox/Computational Modeling/Code/Week 4 - Experiment/subject-2203480.csv","xpyriment","Interactive Ising","3.0.4","0","m","unknown key","NA","m","444","21582","NA","444","legacy","experiment","2203480","even","legacy","155253","632976","NA","NA","NA","701435","611390","NA","699353","700972","3107","701435","697834","697804","700971","3107","CogMod 2015 Experiment","15","7525","16","yes","1024"
"2","1200","-150","16","94.1176470588","94.1176470588","462","462","white","no","xpyriment","legacy","legacy","0","uniform","1","1","z","0","0","0","0","0","136","0","NA","136","136","0","136","136","136","136","0","11/29/15 15:26:34","Default description","no","mono","no","18","black","Ok","768","legacy","D:/Dropbox/Computational Modeling/Code/Week 4 - Experiment/subject-2203480.csv","xpyriment","Interactive Ising","3.0.4","0","z","unknown key","NA","z","344","21582","NA","344","legacy","experiment","2203480","even","legacy","155253","632976","NA","NA","NA","705463","611390","NA","703856","705087","3107","705463","702326","702306","705087","3107","CogMod 2015 Experiment","16","7869","17","yes","1024"
"2","1600","-150","32","94.4444444444","94.4444444444","466","466","white","no","xpyriment","legacy","legacy","0","uniform","1","1","z","0","0","0","0","0","137","0","NA","137","137","0","137","137","137","137","0","11/29/15 15:26:34","Default description","no","mono","no","18","black","Ok","768","legacy","D:/Dropbox/Computational Modeling/Code/Week 4 - Experiment/subject-2203480.csv","xpyriment","Interactive Ising","3.0.4","0","z","unknown key","NA","z","521","21582","NA","521","legacy","experiment","2203480","even","legacy","155253","632976","NA","NA","NA","710038","611390","NA","707867","709487","3107","710038","706344","706315","709487","3107","CogMod 2015 Experiment","17","8390","18","yes","1024"
"2","1600","150","32","94.7368421053","94.7368421053","463","463","white","no","xpyriment","legacy","legacy","0","uniform","1","1","m","0","0","0","0","0","138","0","NA","138","138","0","138","138","138","138","0","11/29/15 15:26:34","Default description","no","mono","no","18","black","Ok","768","legacy","D:/Dropbox/Computational Modeling/Code/Week 4 - Experiment/subject-2203480.csv","xpyriment","Interactive Ising","3.0.4","0","m","unknown key","NA","m","418","21582","NA","418","legacy","experiment","2203480","even","legacy","155253","632976","NA","NA","NA","714548","611390","NA","712473","714101","3107","714548","710942","710910","714100","3107","CogMod 2015 Experiment","18","8808","19","yes","1024"
"2","1600","150","32","95","95","456","456","white","no","xpyriment","legacy","legacy","0","uniform","1","1","m","0","0","0","0","0","139","0","NA","139","139","0","139","139","139","139","0","11/29/15 15:26:34","Default description","no","mono","no","18","black","Ok","768","legacy","D:/Dropbox/Computational Modeling/Code/Week 4 - Experiment/subject-2203480.csv","xpyriment","Interactive Ising","3.0.4","0","m","unknown key","NA","m","315","21582","NA","315","legacy","experiment","2203480","even","legacy","155253","632976","NA","NA","NA","718940","611390","NA","716981","718597","3107","718940","715458","715418","718597","3107","CogMod 2015 Experiment","19","9123","20","yes","1024"
"2","1600","-150","32","95.2380952381","95.2380952381","449","449","white","no","xpyriment","legacy","legacy","0","uniform","1","1","z","0","0","0","0","0","140","0","NA","140","140","0","140","140","140","140","0","11/29/15 15:26:34","Default description","no","mono","no","18","black","Ok","768","legacy","D:/Dropbox/Computational Modeling/Code/Week 4 - Experiment/subject-2203480.csv","xpyriment","Interactive Ising","3.0.4","0","z","unknown key","NA","z","311","21582","NA","311","legacy","experiment","2203480","even","legacy","155253","632976","NA","NA","NA","723347","611390","NA","721380","723008","3107","723347","719854","719821","723008","3107","CogMod 2015 Experiment","20","9434","21","yes","1024"
"2","1600","-150","32","95.4545454545","95.4545454545","441","441","white","no","xpyriment","legacy","legacy","0","uniform","1","1","z","0","0","0","0","0","141","0","NA","141","141","0","141","141","141","141","0","11/29/15 15:26:34","Default description","no","mono","no","18","black","Ok","768","legacy","D:/Dropbox/Computational Modeling/Code/Week 4 - Experiment/subject-2203480.csv","xpyriment","Interactive Ising","3.0.4","0","z","unknown key","NA","z","277","21582","NA","277","legacy","experiment","2203480","even","legacy","155253","632976","NA","NA","NA","727666","611390","NA","725753","727370","3107","727666","724236","724204","727370","3107","CogMod 2015 Experiment","21","9711","22","yes","1024"
"2","1600","-150","32","95.652173913","95.652173913","433","433","white","no","xpyriment","legacy","legacy","0","uniform","1","1","z","0","0","0","0","0","142","0","NA","142","142","0","142","142","142","142","0","11/29/15 15:26:34","Default description","no","mono","no","18","black","Ok","768","legacy","D:/Dropbox/Computational Modeling/Code/Week 4 - Experiment/subject-2203480.csv","xpyriment","Interactive Ising","3.0.4","0","z","unknown key","NA","z","270","21582","NA","270","legacy","experiment","2203480","even","legacy","155253","632976","NA","NA","NA","732019","611390","NA","730111","731729","3107","732019","728592","728573","731729","3107","CogMod 2015 Experiment","22","9981","23","yes","1024"
"2","800","150","8","95.8333333333","95.8333333333","429","429","white","no","xpyriment","legacy","legacy","0","uniform","1","1","m","0","0","0","0","0","143","0","NA","143","143","0","143","143","143","143","0","11/29/15 15:26:34","Default description","no","mono","no","18","black","Ok","768","legacy","D:/Dropbox/Computational Modeling/Code/Week 4 - Experiment/subject-2203480.csv","xpyriment","Interactive Ising","3.0.4","0","m","unknown key","NA","m","332","21582","NA","332","legacy","experiment","2203480","even","legacy","155253","632976","NA","NA","NA","735650","611390","NA","734464","735291","3107","735651","732937","732905","735291","3107","CogMod 2015 Experiment","23","10313","24","yes","1024"
"2","1600","150","32","96","96","424","424","white","no","xpyriment","legacy","legacy","0","uniform","1","1","m","0","0","0","0","0","144","0","NA","144","144","0","144","144","144","144","0","11/29/15 15:26:34","Default description","no","mono","no","18","black","Ok","768","legacy","D:/Dropbox/Computational Modeling/Code/Week 4 - Experiment/subject-2203480.csv","xpyriment","Interactive Ising","3.0.4","0","m","unknown key","NA","m","301","21582","NA","301","legacy","experiment","2203480","even","legacy","155253","632976","NA","NA","NA","740186","611390","NA","738247","739866","3107","740186","736727","736687","739866","3107","CogMod 2015 Experiment","24","10614","25","yes","1024"
"2","1200","-150","16","96.1538461538","96.1538461538","420","420","white","no","xpyriment","legacy","legacy","0","uniform","1","1","z","0","0","0","0","0","145","0","NA","145","145","0","145","145","145","145","0","11/29/15 15:26:34","Default description","no","mono","no","18","black","Ok","768","legacy","D:/Dropbox/Computational Modeling/Code/Week 4 - Experiment/subject-2203480.csv","xpyriment","Interactive Ising","3.0.4","0","z","unknown key","NA","z","307","21582","NA","307","legacy","experiment","2203480","even","legacy","155253","632976","NA","NA","NA","744106","611390","NA","742560","743780","3107","744106","741038","741018","743780","3107","CogMod 2015 Experiment","25","10921","26","yes","1024"
